Acc_X,Acc_Y,Acc_Z
-3.540282,-8.383536,1.669629
-1.271611,-10.527706,-0.401994
-2.242091,-8.872554,0.287244
-1.515563,-9.962933,0.313379
-1.775688,-10.060343,-0.211415
-2.866404,-9.013159,1.616984
-1.759906,-10.390196,0.391431
-3.014021,-8.5776,1.515536
-1.352209,-10.468452,0.180604
-2.714481,-8.611851,1.185068
-1.749677,-10.381452,0.260989
-3.87966,-8.224055,1.86941
-2.42957,-10.260655,-0.842023
-2.051317,-9.703882,0.42235
-1.537598,-10.692944,-0.083327
-3.278517,-8.510406,1.910928
-1.423408,-10.466755,0.403826
-4.168078,-7.88271,2.221326
-1.492579,-10.245176,-0.105538
-2.934947,-8.755702,1.558099
-2.007128,-9.617748,0.036782
-2.01082,-8.908323,1.238773
-2.447196,-9.885433,0.614916
-1.831597,-9.422389,0.749533
-3.558364,-8.960927,1.444606
-2.605951,-10.170956,-0.597443
-2.175054,-9.556762,1.120624
-2.129641,-10.706573,-0.081117
-3.640771,-8.19772,2.12047
-1.499062,-10.442152,0.020441
-3.122494,-8.699039,1.635045
-1.689232,-9.306567,0.177907
-1.593461,-9.951763,0.585393
-3.690865,-8.434406,1.740666
-2.057746,-9.885702,0.194627
-2.625098,-9.363097,1.639435
-1.864159,-9.388893,0.449001
-2.075004,-8.794436,1.435796
-3.040394,-9.428481,1.401648
-1.488185,-10.390076,0.360265
-2.78312,-8.460264,1.704889
-1.113492,-10.871311,0.230181
-3.178986,-8.454382,1.527582
-0.509488,-10.650311,-0.0669
-3.540282,-8.383536,1.669629
-1.271611,-10.527706,-0.401994
-2.242091,-8.872554,0.287244
-1.515563,-9.962933,0.313379
-1.775688,-10.060343,-0.211415
-2.866404,-9.013159,1.616984
-1.759906,-10.390196,0.391431
-3.014021,-8.5776,1.515536
-1.352209,-10.468452,0.180604
-2.714481,-8.611851,1.185068
-1.749677,-10.381452,0.260989
-3.87966,-8.224055,1.86941
-2.42957,-10.260655,-0.842023
-2.051317,-9.703882,0.42235
-1.537598,-10.692944,-0.083327
-3.278517,-8.510406,1.910928
-1.423408,-10.466755,0.403826
-4.168078,-7.88271,2.221326
-1.492579,-10.245176,-0.105538
-2.934947,-8.755702,1.558099
-2.007128,-9.617748,0.036782
-2.01082,-8.908323,1.238773
-2.447196,-9.885433,0.614916
-1.831597,-9.422389,0.749533
-3.558364,-8.960927,1.444606
-2.605951,-10.170956,-0.597443
-2.175054,-9.556762,1.120624
-2.129641,-10.706573,-0.081117
-3.640771,-8.19772,2.12047
-1.499062,-10.442152,0.020441
-3.122494,-8.699039,1.635045
-1.689232,-9.306567,0.177907
-1.593461,-9.951763,0.585393
-3.690865,-8.434406,1.740666
-2.391113,-10.079358,0.572587
-3.726098,-8.473521,1.813613
-1.988793,-10.766155,0.2237
-4.323186,-7.686625,2.214309
-2.113235,-10.553865,0.139531
-3.577379,-8.240341,1.977759
-1.95083,-10.412497,-0.009701
-3.64647,-7.977592,1.698938
-2.824282,-9.336962,0.454172
-2.38582,-8.955455,1.047304
-3.591815,-9.459743,0.722309
-2.405999,-9.944263,-0.981131
-2.819029,-9.729143,0.778453
-2.36985,-10.529007,-0.533437
-3.4615,-8.403282,1.917836
-2.209971,-10.167814,0.232176
-3.560757,-8.421204,2.007858
-1.807549,-10.635427,-0.013545
-3.389647,-8.531578,1.263345
-1.860866,-10.482076,0.096704
-4.188779,-7.808261,2.031285
-2.391223,-9.84254,-0.098082
-2.983696,-9.727546,-0.296212
-2.673275,-10.418983,-0.501212
-3.228437,-8.541088,1.570867
-2.669457,-9.805426,0.376959
-2.924105,-8.239384,1.865915
-3.053667,-9.67262,0.858984
-2.257423,-9.470344,0.854332
-3.411195,-9.133253,1.156005
-1.999601,-10.108502,0.596306
-3.376677,-8.558911,1.48594
-1.565324,-10.853953,-0.091734
-4.581094,-7.667669,1.666837
-2.305922,-9.829405,-0.638214
-4.177339,-8.455429,0.887456
-3.730752,-8.967322,1.353261
-2.221578,-10.224107,0.492945
-3.747913,-8.302134,1.497777
-1.93336,-10.776761,0.17529
-3.777672,-8.15791,2.01381
-1.568723,-10.375578,-0.197184
-3.465811,-8.281315,1.814407
-2.039581,-9.635504,0.19706
-2.391113,-10.079358,0.572587
-3.726098,-8.473521,1.813613
-1.988793,-10.766155,0.2237
-4.323186,-7.686625,2.214309
-2.113235,-10.553865,0.139531
-3.577379,-8.240341,1.977759
-1.95083,-10.412497,-0.009701
-3.64647,-7.977592,1.698938
-2.824282,-9.336962,0.454172
-2.38582,-8.955455,1.047304
-3.591815,-9.459743,0.722309
-2.405999,-9.944263,-0.981131
-2.819029,-9.729143,0.778453
-2.36985,-10.529007,-0.533437
-3.4615,-8.403282,1.917836
-2.209971,-10.167814,0.232176
-3.560757,-8.421204,2.007858
-1.807549,-10.635427,-0.013545
-3.389647,-8.531578,1.263345
-1.860866,-10.482076,0.096704
-4.188779,-7.808261,2.031285
-2.391223,-9.84254,-0.098082
-2.983696,-9.727546,-0.296212
-2.673275,-10.418983,-0.501212
-3.228437,-8.541088,1.570867
-2.669457,-9.805426,0.376959
-2.924105,-8.239384,1.865915
-3.053667,-9.67262,0.858984
-2.257423,-9.470344,0.854332
-3.411195,-9.133253,1.156005
-1.999601,-10.108502,0.596306
-3.376677,-8.558911,1.48594
-1.565324,-10.853953,-0.091734
-4.581094,-7.667669,1.666837
-2.305922,-9.829405,-0.638214
-4.177339,-8.455429,0.887456
-3.730752,-8.967322,1.353261
-2.221578,-10.224107,0.492945
-3.747913,-8.302134,1.497777
-1.93336,-10.776761,0.17529
-3.777672,-8.15791,2.01381
-1.568723,-10.375578,-0.197184
-3.465811,-8.281315,1.814407
-2.039581,-9.635504,0.19706
-3.389266,-10.284919,0.875607
-4.466504,-7.337915,1.904673
-3.071219,-10.261388,0.461887
-4.948232,-7.414614,2.223542
-2.636071,-10.2012,0.337521
-4.484329,-7.893258,1.936914
-2.026066,-10.760718,0.285141
-4.564733,-7.664011,1.709133
-2.136139,-10.709309,0.021698
-4.658375,-7.719877,1.632585
-2.494107,-10.348878,-0.674265
-3.754098,-8.609056,0.739015
-2.71616,-10.468275,-0.877807
-4.092743,-8.448444,1.599797
-3.016794,-10.100292,0.617852
-4.193167,-7.998603,1.503565
-2.679141,-10.458536,0.308067
-4.20676,-8.141394,1.663005
-2.958956,-10.214833,-0.004317
-4.717773,-7.266653,2.397772
-3.559641,-9.991383,-0.49617
-3.582379,-9.453081,0.012641
-2.653698,-10.59466,-0.373756
-3.732816,-8.256845,1.368291
-2.894047,-10.233321,0.577474
-4.341952,-8.046001,1.531824
-2.382618,-10.214369,0.265162
-4.925248,-7.976432,1.658852
-2.584263,-10.285332,0.217678
-4.458162,-7.893215,1.447922
-2.981839,-10.353535,0.222399
-5.109348,-7.044645,1.817272
-3.667773,-9.66849,-0.123364
-4.776671,-8.270918,1.336935
-3.319352,-9.579773,0.352817
-3.307657,-8.307857,1.539212
-3.721593,-9.449905,0.90168
-2.808294,-10.037701,0.404221
-4.421083,-7.83726,1.854847
-2.508609,-10.619633,-0.071744
-4.719891,-7.656763,1.848595
-2.299013,-10.267136,-0.321497
-4.663295,-7.916334,1.876594
-3.389266,-10.284919,0.875607
-4.466504,-7.337915,1.904673
-3.071219,-10.261388,0.461887
-4.948232,-7.414614,2.223542
-2.636071,-10.2012,0.337521
-4.484329,-7.893258,1.936914
-2.026066,-10.760718,0.285141
-4.564733,-7.664011,1.709133
-2.136139,-10.709309,0.021698
-4.658375,-7.719877,1.632585
-2.494107,-10.348878,-0.674265
-3.754098,-8.609056,0.739015
-2.71616,-10.468275,-0.877807
-4.092743,-8.448444,1.599797
-3.016794,-10.100292,0.617852
-4.193167,-7.998603,1.503565
-2.679141,-10.458536,0.308067
-4.20676,-8.141394,1.663005
-2.958956,-10.214833,-0.004317
-4.717773,-7.266653,2.397772
-3.559641,-9.991383,-0.49617
-3.582379,-9.453081,0.012641
-2.653698,-10.59466,-0.373756
-3.732816,-8.256845,1.368291
-2.894047,-10.233321,0.577474
-4.341952,-8.046001,1.531824
-2.382618,-10.214369,0.265162
-4.925248,-7.976432,1.658852
-2.584263,-10.285332,0.217678
-4.458162,-7.893215,1.447922
-2.981839,-10.353535,0.222399
-5.109348,-7.044645,1.817272
-3.667773,-9.66849,-0.123364
-4.776671,-8.270918,1.336935
-3.319352,-9.579773,0.352817
-3.307657,-8.307857,1.539212
-3.721593,-9.449905,0.90168
-2.808294,-10.037701,0.404221
-4.421083,-7.83726,1.854847
-2.508609,-10.619633,-0.071744
-4.719891,-7.656763,1.848595
-2.299013,-10.267136,-0.321497
-4.663295,-7.916334,1.876594
-2.272685,-9.517656,0.562177
-3.246435,-9.357132,1.300132
-2.054873,-9.685205,0.465923
-3.725958,-8.886706,1.49981
-1.899854,-10.170609,0.23211
-4.376759,-8.230178,1.879961
-1.378203,-10.803503,0.231907
-4.087823,-7.90399,1.722608
-1.41692,-10.712044,0.15331
-3.804374,-8.09058,1.534489
-1.947937,-10.381698,-0.475777
-2.774043,-8.740438,0.465341
-2.043106,-9.69682,-0.301931
-2.734827,-9.247615,0.593228
-3.011497,-9.942226,0.653888
-2.966586,-9.372523,1.656253
-2.136345,-10.05788,0.073002
-3.047304,-9.034666,1.261073
-2.206911,-10.014653,-0.183485
-3.74949,-7.904333,2.268553
-2.70418,-9.396194,0.194422
-3.042954,-10.085613,-0.509495
-2.154471,-9.939266,0.502863
-2.661676,-9.249972,0.579999
-2.949121,-9.89492,0.936876
-1.817368,-9.742941,0.565523
-2.982964,-9.217785,1.122753
-1.803688,-9.98065,0.266521
-3.481624,-8.838233,1.340691
-1.684964,-10.468064,0.10628
-3.281974,-8.388256,1.281833
-2.125126,-10.720393,-0.092266
-4.395511,-7.565517,2.128732
-2.328498,-9.905816,-0.560777
-5.027788,-8.278305,1.725822
-2.510442,-9.563808,0.444394
-2.450825,-9.226672,0.808204
-2.840717,-9.556536,1.089648
-1.667491,-10.161857,0.415782
-3.754895,-8.396971,1.440982
-1.751289,-10.647059,0.064725
-4.139497,-8.203306,1.646284
-1.482659,-10.474678,-0.263145
-2.272685,-9.517656,0.562177
-3.246435,-9.357132,1.300132
-2.054873,-9.685205,0.465923
-3.725958,-8.886706,1.49981
-1.899854,-10.170609,0.23211
-4.376759,-8.230178,1.879961
-1.378203,-10.803503,0.231907
-4.087823,-7.90399,1.722608
-1.41692,-10.712044,0.15331
-3.804374,-8.09058,1.534489
-1.947937,-10.381698,-0.475777
-2.774043,-8.740438,0.465341
-2.043106,-9.69682,-0.301931
-2.734827,-9.247615,0.593228
-3.011497,-9.942226,0.653888
-2.966586,-9.372523,1.656253
-2.136345,-10.05788,0.073002
-3.047304,-9.034666,1.261073
-2.206911,-10.014653,-0.183485
-3.74949,-7.904333,2.268553
-2.70418,-9.396194,0.194422
-3.042954,-10.085613,-0.509495
-2.154471,-9.939266,0.502863
-2.661676,-9.249972,0.579999
-2.949121,-9.89492,0.936876
-1.817368,-9.742941,0.565523
-2.982964,-9.217785,1.122753
-1.803688,-9.98065,0.266521
-3.481624,-8.838233,1.340691
-1.684964,-10.468064,0.10628
-3.281974,-8.388256,1.281833
-2.125126,-10.720393,-0.092266
-4.395511,-7.565517,2.128732
-2.328498,-9.905816,-0.560777
-5.027788,-8.278305,1.725822
-2.510442,-9.563808,0.444394
-2.450825,-9.226672,0.808204
-2.840717,-9.556536,1.089648
-1.667491,-10.161857,0.415782
-3.754895,-8.396971,1.440982
-1.751289,-10.647059,0.064725
-4.139497,-8.203306,1.646284
-1.482659,-10.474678,-0.263145
-5.085739,-7.713891,0.860056
-2.210835,-9.228156,0.775593
-3.001853,-9.681061,0.056336
-1.867604,-9.620468,-0.331749
-3.724967,-9.111374,0.512297
-1.705992,-10.258994,-0.411865
-4.171334,-8.51413,0.860418
-0.98487,-10.89512,-0.671103
-4.375791,-7.917797,0.917782
-1.137433,-10.561595,-0.847609
-3.556171,-8.353936,0.829874
-1.743765,-9.359241,-0.532373
-1.464043,-10.116804,-1.784407
-1.871814,-10.075945,0.300392
-1.528754,-11.00758,-1.278965
-2.756846,-8.626814,0.566167
-1.10574,-10.909784,-0.965851
-3.516484,-8.421481,0.608373
-1.720022,-10.549294,-0.557911
-3.497838,-8.456377,0.460587
-1.428741,-10.68763,-0.79956
-4.125665,-8.131947,0.984487
-2.090394,-10.207321,-0.720717
-2.039989,-9.913651,-0.347783
-1.9496,-10.618459,-1.110837
-3.065698,-9.078188,0.09338
-1.576965,-10.484123,-0.547082
-3.68972,-8.644505,0.531117
-1.463843,-10.471213,-0.41539
-3.839631,-8.417926,0.485834
-1.639085,-10.38835,-0.380141
-3.565885,-8.453834,0.244346
-1.677594,-10.715417,-0.346405
-4.712909,-7.628366,0.718863
-2.277274,-9.848454,-0.194191
-4.358157,-8.762619,-0.377747
-3.475039,-9.44317,0.361464
-2.335665,-9.276109,0.260974
-3.098617,-9.585092,0.005658
-2.015828,-9.58753,-0.088194
-3.6973,-9.189518,0.380949
-1.738179,-10.591656,-0.737875
-4.334068,-8.199108,0.477347
-1.371734,-10.459976,-0.334652
-2.210835,-9.228156,0.775593
-3.001853,-9.681061,0.056336
-1.867604,-9.620468,-0.331749
-3.724967,-9.111374,0.512297
-1.705992,-10.258994,-0.411865
-4.171334,-8.51413,0.860418
-0.98487,-10.89512,-0.671103
-4.375791,-7.917797,0.917782
-1.137433,-10.561595,-0.847609
-3.556171,-8.353936,0.829874
-1.743765,-9.359241,-0.532373
-1.464043,-10.116804,-1.784407
-1.871814,-10.075945,0.300392
-1.528754,-11.00758,-1.278965
-2.756846,-8.626814,0.566167
-1.10574,-10.909784,-0.965851
-3.516484,-8.421481,0.608373
-1.720022,-10.549294,-0.557911
-3.497838,-8.456377,0.460587
-1.428741,-10.68763,-0.79956
-4.125665,-8.131947,0.984487
-2.090394,-10.207321,-0.720717
-2.039989,-9.913651,-0.347783
-1.9496,-10.618459,-1.110837
-3.065698,-9.078188,0.09338
-1.576965,-10.484123,-0.547082
-3.68972,-8.644505,0.531117
-1.463843,-10.471213,-0.41539
-3.839631,-8.417926,0.485834
-1.639085,-10.38835,-0.380141
-3.565885,-8.453834,0.244346
-1.677594,-10.715417,-0.346405
-4.712909,-7.628366,0.718863
-2.277274,-9.848454,-0.194191
-4.358157,-8.762619,-0.377747
-3.475039,-9.44317,0.361464
-2.335665,-9.276109,0.260974
-3.098617,-9.585092,0.005658
-2.015828,-9.58753,-0.088194
-3.6973,-9.189518,0.380949
-1.738179,-10.591656,-0.737875
-4.334068,-8.199108,0.477347
-1.371734,-10.459976,-0.334652
-5.449167,-6.69348,2.549359
-3.440323,-10.502138,0.304733
-5.00037,-7.255258,1.048539
-3.852726,-10.341725,-0.273133
-5.498558,-6.778099,1.149229
-3.853742,-10.302476,-0.43415
-4.927322,-7.629496,1.10872
-3.345618,-9.925666,-0.670771
-5.481885,-7.226879,0.973897
-3.434539,-9.436454,-0.643503
-3.655979,-8.6124,0.396287
-4.254752,-8.975505,-0.049209
-3.205733,-9.673852,-1.906729
-3.849931,-9.33922,0.352219
-3.853741,-10.43295,-1.429805
-4.820315,-7.61533,0.929286
-3.743917,-10.136195,0.054497
-5.306538,-7.431908,0.946979
-3.80695,-10.052408,-0.07838
-5.006065,-7.643928,0.714541
-3.760023,-10.154469,-0.117509
-5.458172,-7.035202,1.029314
-4.156367,-9.485871,-0.290849
-4.004158,-8.982089,-0.315631
-5.000493,-10.056788,-0.1565
-5.244454,-7.189852,1.430948
-3.772724,-10.12631,-0.198131
-4.852551,-7.719115,0.832061
-4.01369,-10.00915,-0.518027
-5.229924,-7.789442,1.125877
-3.996912,-9.617552,-0.571039
-4.939627,-7.92518,0.943986
-3.883153,-9.678777,-0.557768
-4.55755,-8.220598,0.693193
-3.806636,-9.292402,-0.910125
-4.352007,-8.886912,-0.160057
-3.541479,-9.293269,-0.111324
-5.311887,-8.582512,0.24078
-5.112612,-8.561644,1.012282
-3.722973,-9.601852,-0.177233
-5.408016,-7.870146,0.57146
-3.729357,-10.130307,-0.229506
-5.45847,-7.149267,1.026442
-3.36351,-10.193951,-0.520934
-5.902826,-6.951271,1.294537
-3.27701,-10.002199,-0.92661
-5.449167,-6.69348,2.549359
-3.440323,-10.502138,0.304733
-5.00037,-7.255258,1.048539
-3.852726,-10.341725,-0.273133
-5.498558,-6.778099,1.149229
-3.853742,-10.302476,-0.43415
-4.927322,-7.629496,1.10872
-3.345618,-9.925666,-0.670771
-5.481885,-7.226879,0.973897
-3.434539,-9.436454,-0.643503
-3.655979,-8.6124,0.396287
-4.254752,-8.975505,-0.049209
-3.205733,-9.673852,-1.906729
-3.849931,-9.33922,0.352219
-3.853741,-10.43295,-1.429805
-4.820315,-7.61533,0.929286
-3.743917,-10.136195,0.054497
-5.306538,-7.431908,0.946979
-3.80695,-10.052408,-0.07838
-5.006065,-7.643928,0.714541
-3.760023,-10.154469,-0.117509
-5.458172,-7.035202,1.029314
-4.156367,-9.485871,-0.290849
-4.004158,-8.982089,-0.315631
-5.000493,-10.056788,-0.1565
-5.244454,-7.189852,1.430948
-3.772724,-10.12631,-0.198131
-4.852551,-7.719115,0.832061
-4.01369,-10.00915,-0.518027
-5.229924,-7.789442,1.125877
-3.996912,-9.617552,-0.571039
-4.939627,-7.92518,0.943986
-3.883153,-9.678777,-0.557768
-4.55755,-8.220598,0.693193
-3.806636,-9.292402,-0.910125
-4.352007,-8.886912,-0.160057
-3.541479,-9.293269,-0.111324
-5.311887,-8.582512,0.24078
-5.112612,-8.561644,1.012282
-3.722973,-9.601852,-0.177233
-5.408016,-7.870146,0.57146
-3.729357,-10.130307,-0.229506
-5.45847,-7.149267,1.026442
-3.36351,-10.193951,-0.520934
-5.902826,-6.951271,1.294537
-3.27701,-10.002199,-0.92661
-4.466793,-8.695238,1.765154
-2.120269,-10.128271,0.122665
-3.81728,-8.58449,1.192735
-1.947065,-10.084492,-0.09815
-3.419089,-8.789638,0.97801
-2.184295,-10.277938,0.104803
-3.637082,-8.566435,1.260849
-1.618392,-11.154208,-0.074118
-3.679871,-7.910573,1.135317
-1.200881,-10.935955,-0.289029
-3.739872,-8.255846,0.865714
-1.145791,-10.669201,-1.277023
-1.932044,-9.249439,0.212224
-2.013579,-10.286726,-0.958673
-3.172417,-8.519024,0.615665
-2.525573,-9.826601,-0.005802
-3.005509,-8.410535,1.158258
-5.463737,-8.269413,1.322569
-2.005348,-10.192229,0.085657
-3.66843,-8.49597,0.837504
-1.555416,-10.581922,-1.081571
-2.808587,-9.17934,0.718332
-2.105822,-10.107228,-0.293617
-4.664692,-8.946972,0.37942
-2.277449,-9.527237,-0.118882
-2.587655,-9.398344,0.037515
-3.381532,-9.469042,0.365985
-1.747604,-10.485718,-0.213998
-3.656932,-8.509564,0.652027
-1.606697,-10.906027,-0.333986
-3.561249,-8.135774,0.530164
-1.768172,-10.589194,-0.696574
-3.728892,-8.496329,0.613519
-1.846518,-10.296504,-0.801854
-2.91895,-9.149535,0.482426
-1.846584,-9.963776,-0.41825
-3.830313,-9.202353,0.515091
-2.689033,-9.394832,-0.012449
-2.653962,-9.209802,0.314709
-3.001453,-9.734265,0.248204
-1.886033,-10.019066,0.002496
-3.685065,-8.892637,0.666258
-2.009123,-10.504003,-0.157148
-3.465335,-8.579133,0.948279
-1.521104,-10.686027,-0.603068
-4.090417,-8.237956,1.06955
-4.466793,-8.695238,1.765154
-2.120269,-10.128271,0.122665
-3.81728,-8.58449,1.192735
-1.947065,-10.084492,-0.09815
-3.419089,-8.789638,0.97801
-2.184295,-10.277938,0.104803
-3.637082,-8.566435,1.260849
-1.618392,-11.154208,-0.074118
-3.679871,-7.910573,1.135317
-1.200881,-10.935955,-0.289029
-3.739872,-8.255846,0.865714
-1.145791,-10.669201,-1.277023
-1.932044,-9.249439,0.212224
-2.013579,-10.286726,-0.958673
-3.172417,-8.519024,0.615665
-2.525573,-9.826601,-0.005802
-3.005509,-8.410535,1.158258
-5.463737,-8.269413,1.322569
-2.005348,-10.192229,0.085657
-3.66843,-8.49597,0.837504
-1.555416,-10.581922,-1.081571
-2.808587,-9.17934,0.718332
-2.105822,-10.107228,-0.293617
-4.664692,-8.946972,0.37942
-2.277449,-9.527237,-0.118882
-2.587655,-9.398344,0.037515
-3.381532,-9.469042,0.365985
-1.747604,-10.485718,-0.213998
-3.656932,-8.509564,0.652027
-1.606697,-10.906027,-0.333986
-3.561249,-8.135774,0.530164
-1.768172,-10.589194,-0.696574
-3.728892,-8.496329,0.613519
-1.846518,-10.296504,-0.801854
-2.91895,-9.149535,0.482426
-1.846584,-9.963776,-0.41825
-3.830313,-9.202353,0.515091
-2.689033,-9.394832,-0.012449
-2.653962,-9.209802,0.314709
-3.001453,-9.734265,0.248204
-1.886033,-10.019066,0.002496
-3.685065,-8.892637,0.666258
-2.009123,-10.504003,-0.157148
-3.465335,-8.579133,0.948279
-1.521104,-10.686027,-0.603068
-4.090417,-8.237956,1.06955
-2.649306,-10.498348,0.143524
-3.804369,-8.014176,0.825593
-2.693599,-10.704118,0.023483
-4.291929,-7.775076,0.897366
-2.467535,-10.786448,-0.241206
-3.735543,-8.035114,0.798338
-1.87864,-10.835266,-0.099953
-4.249618,-7.90593,0.930866
-0.981534,-11.046394,-0.581835
-3.885445,-8.146909,0.938201
-1.882963,-10.483718,-0.880995
-2.522456,-8.924407,-0.331531
-2.028608,-10.69567,-1.053178
-2.943527,-9.158194,0.534577
-1.833651,-10.307893,-0.314626
-3.468588,-8.714269,0.568362
-2.222539,-10.513114,-0.456423
-3.58258,-8.49081,0.744734
-2.487485,-10.821052,-0.122801
-4.099262,-7.603292,1.261617
-3.166054,-10.278483,-1.0994
-2.354935,-9.624096,-0.122293
-2.175919,-10.844045,-0.827392
-3.409399,-8.365248,0.778453
-2.572226,-10.695612,0.017151
-4.026437,-7.96076,1.066356
-2.109682,-10.635283,-0.484555
-3.512495,-8.314032,0.749704
-2.005199,-10.599971,-0.191929
-3.13799,-8.484823,0.341047
-2.000664,-10.878947,-0.218713
-4.775399,-7.517779,1.563588
-2.171331,-9.633176,-0.200908
-4.447684,-8.685139,-0.295745
-3.985604,-9.261774,0.873043
-2.147871,-10.119188,-0.09465
-3.565421,-8.846349,0.745865
-2.132823,-10.44634,-0.117711
-3.852834,-8.347333,1.045786
-1.681983,-10.590989,-0.196453
-4.066207,-8.402822,0.962808
-1.885453,-10.427821,-0.33719
-4.111431,-8.369237,0.973912
-2.649306,-10.498348,0.143524
-3.804369,-8.014176,0.825593
-2.693599,-10.704118,0.023483
-4.291929,-7.775076,0.897366
-2.467535,-10.786448,-0.241206
-3.735543,-8.035114,0.798338
-1.87864,-10.835266,-0.099953
-4.249618,-7.90593,0.930866
-0.981534,-11.046394,-0.581835
-3.885445,-8.146909,0.938201
-1.882963,-10.483718,-0.880995
-2.522456,-8.924407,-0.331531
-2.028608,-10.69567,-1.053178
-2.943527,-9.158194,0.534577
-1.833651,-10.307893,-0.314626
-3.468588,-8.714269,0.568362
-2.222539,-10.513114,-0.456423
-3.58258,-8.49081,0.744734
-2.487485,-10.821052,-0.122801
-4.099262,-7.603292,1.261617
-3.166054,-10.278483,-1.0994
-2.354935,-9.624096,-0.122293
-2.175919,-10.844045,-0.827392
-3.409399,-8.365248,0.778453
-2.572226,-10.695612,0.017151
-4.026437,-7.96076,1.066356
-2.109682,-10.635283,-0.484555
-3.512495,-8.314032,0.749704
-2.005199,-10.599971,-0.191929
-3.13799,-8.484823,0.341047
-2.000664,-10.878947,-0.218713
-4.775399,-7.517779,1.563588
-2.171331,-9.633176,-0.200908
-4.447684,-8.685139,-0.295745
-3.985604,-9.261774,0.873043
-2.147871,-10.119188,-0.09465
-3.565421,-8.846349,0.745865
-2.132823,-10.44634,-0.117711
-3.852834,-8.347333,1.045786
-1.681983,-10.590989,-0.196453
-4.066207,-8.402822,0.962808
-1.885453,-10.427821,-0.33719
-4.111431,-8.369237,0.973912
-3.855318,-8.338113,1.069283
-2.791839,-10.453286,-0.114893
-4.226951,-7.825089,1.162257
-2.513502,-10.625107,-0.051071
-4.164515,-7.825615,1.06915
-2.030339,-11.115684,-0.34967
-4.500288,-7.655965,1.133858
-1.782073,-10.827418,-0.406943
-4.05975,-7.744866,1.173479
-1.837938,-10.310469,-1.087761
-3.535292,-9.020726,-0.343362
-1.584001,-9.659501,-0.619199
-3.002051,-9.534551,-0.079934
-3.159936,-9.671619,0.418126
-2.986495,-9.339767,0.689849
-2.844832,-9.65785,0.008784
-2.845764,-9.545257,0.717933
-2.843134,-9.497056,-0.110176
-3.59542,-8.119158,1.387868
-3.283502,-9.455741,0.29968
-2.939135,-10.066195,-0.772923
-1.876167,-9.859089,-0.103575
-2.878484,-10.612008,-1.066878
-3.774782,-8.265025,0.882269
-2.010751,-10.630386,-0.157844
-3.937121,-8.220531,0.566367
-2.061063,-10.539847,-0.598413
-4.267394,-8.235605,0.926005
-2.360671,-10.180584,-0.385195
-3.815948,-8.6453,0.842964
-2.308863,-10.327263,-0.682029
-4.605968,-7.802945,1.449693
-2.651236,-9.175487,-0.203703
-3.71998,-10.098251,-0.954218
-5.541616,-7.829895,1.674519
-1.927388,-10.435567,-0.404881
-4.223162,-8.302,0.878479
-2.000229,-10.179186,-0.933927
-4.471046,-8.198965,0.974252
-2.050023,-9.478884,-0.742995
-2.594837,-9.109977,0.578604
-2.994112,-9.662838,0.121989
-1.820315,-10.278346,-0.454496
-4.465044,-8.231637,0.877147
-3.855318,-8.338113,1.069283
-2.791839,-10.453286,-0.114893
-4.226951,-7.825089,1.162257
-2.513502,-10.625107,-0.051071
-4.164515,-7.825615,1.06915
-2.030339,-11.115684,-0.34967
-4.500288,-7.655965,1.133858
-1.782073,-10.827418,-0.406943
-4.05975,-7.744866,1.173479
-1.837938,-10.310469,-1.087761
-3.535292,-9.020726,-0.343362
-1.584001,-9.659501,-0.619199
-3.002051,-9.534551,-0.079934
-3.159936,-9.671619,0.418126
-2.986495,-9.339767,0.689849
-2.844832,-9.65785,0.008784
-2.845764,-9.545257,0.717933
-2.843134,-9.497056,-0.110176
-3.59542,-8.119158,1.387868
-3.283502,-9.455741,0.29968
-2.939135,-10.066195,-0.772923
-1.876167,-9.859089,-0.103575
-2.878484,-10.612008,-1.066878
-3.774782,-8.265025,0.882269
-2.010751,-10.630386,-0.157844
-3.937121,-8.220531,0.566367
-2.061063,-10.539847,-0.598413
-4.267394,-8.235605,0.926005
-2.360671,-10.180584,-0.385195
-3.815948,-8.6453,0.842964
-2.308863,-10.327263,-0.682029
-4.605968,-7.802945,1.449693
-2.651236,-9.175487,-0.203703
-3.71998,-10.098251,-0.954218
-5.541616,-7.829895,1.674519
-1.927388,-10.435567,-0.404881
-4.223162,-8.302,0.878479
-2.000229,-10.179186,-0.933927
-4.471046,-8.198965,0.974252
-2.050023,-9.478884,-0.742995
-2.594837,-9.109977,0.578604
-2.994112,-9.662838,0.121989
-1.820315,-10.278346,-0.454496
-4.465044,-8.231637,0.877147
-3.43588,-8.341385,0.762546
-2.206511,-10.570106,-0.117445
-4.072326,-8.042029,0.981628
-2.101293,-10.469321,-0.413806
-3.576527,-8.747853,1.033635
-1.485126,-10.396595,-0.581654
-3.378638,-8.414808,0.905111
-2.363997,-9.452347,-0.476839
-1.8807,-9.269259,0.228917
-3.32981,-9.572802,0.172049
-1.472423,-10.228135,-1.802563
-2.590981,-9.679201,0.448586
-1.517249,-10.834998,-0.813359
-3.355927,-8.570936,0.903441
-1.737183,-10.358752,-0.229307
-3.380535,-8.736082,0.678893
-1.851504,-10.420204,-0.388721
-3.658903,-8.660176,0.731856
-1.741638,-10.318915,-0.419779
-4.058825,-8.255646,1.05525
-2.563519,-9.983298,-0.031096
-2.640859,-9.569398,-0.866562
-1.891808,-10.403778,-0.987139
-2.808092,-8.783223,0.324842
-2.706832,-9.918285,-0.174373
-2.955298,-8.873553,0.82607
-2.693966,-9.84284,-0.012304
-2.454711,-9.342748,0.287575
-2.951773,-9.707465,0.059793
-1.920277,-9.820421,-0.10713
-3.486877,-9.221973,0.433622
-2.247279,-9.626926,-0.345225
-4.807469,-8.450647,0.972729
-2.468808,-10.59438,-1.421021
-4.744698,-8.127823,1.361574
-2.046517,-10.381317,-0.451387
-3.858275,-8.458411,0.972509
-2.066052,-10.286128,-0.427559
-3.379138,-8.706288,0.820217
-2.106518,-9.518244,-0.606067
-2.605818,-8.394855,0.654227
-2.527602,-9.892083,-0.344295
-3.43588,-8.341385,0.762546
-2.206511,-10.570106,-0.117445
-4.072326,-8.042029,0.981628
-2.101293,-10.469321,-0.413806
-3.576527,-8.747853,1.033635
-1.485126,-10.396595,-0.581654
-3.378638,-8.414808,0.905111
