Acc_X,Acc_Y,Acc_Z
-0.239658,-9.93188,-0.344342
-0.24383,-9.931878,-0.350977
-0.268869,-9.932836,-0.355835
-0.266876,-9.930191,-0.362584
-0.259426,-9.932907,-0.34742
-0.265878,-9.930391,-0.340704
-0.264083,-9.930391,-0.33884
-0.265994,-9.933043,-0.342906
-0.257099,-9.932317,-0.347887
-0.27133,-9.930986,-0.363223
-0.266344,-9.929127,-0.356732
-0.268463,-9.93122,-0.358466
-0.251936,-9.931837,-0.350046
-0.238079,-9.934779,-0.341036
-0.247799,-9.930713,-0.355834
-0.259497,-9.933449,-0.34571
-0.2573,-9.932384,-0.339973
-0.248229,-9.931531,-0.328497
-0.240805,-9.932983,-0.327602
-0.227482,-9.932425,-0.323274
-0.234554,-9.931787,-0.334784
-0.232544,-9.930782,-0.344137
-0.235618,-9.932983,-0.339507
-0.229288,-9.931764,-0.339886
-0.243491,-9.931809,-0.338734
-0.246763,-9.932379,-0.344951
-0.23595,-9.931654,-0.337911
-0.243467,-9.930455,-0.337378
-0.233365,-9.93318,-0.34017
-0.235486,-9.929417,-0.342634
-0.232544,-9.932903,-0.347215
-0.241936,-9.934448,-0.345424
-0.234186,-9.934134,-0.347079
-0.25597,-9.931252,-0.342898
-0.265975,-9.930565,-0.344391
-0.270535,-9.930191,-0.346556
-0.229671,-9.930303,-0.346461
-0.228235,-9.933983,-0.338441
-0.217769,-9.930511,-0.331825
-0.198776,-9.934113,-0.3139
-0.205957,-9.933385,-0.321549
-0.202239,-9.933725,-0.327242
-0.196314,-9.929855,-0.337446
-0.187533,-9.932836,-0.342357
-0.194983,-9.929461,-0.344295
-0.23316,-9.932631,-0.361855
-0.261688,-9.931721,-0.359591
-0.271707,-9.930298,-0.365416
-0.273793,-9.928728,-0.364978
-0.249373,-9.931602,-0.354193
-0.250602,-9.931742,-0.346668
-0.244926,-9.931466,-0.350363
-0.235486,-9.930389,-0.347553
-0.238017,-9.933998,-0.351524
-0.23768,-9.932652,-0.350547
-0.237333,-9.929073,-0.355081
-0.236283,-9.933781,-0.351743
-0.233295,-9.931127,-0.345711
-0.237746,-9.931587,-0.334785
-0.230498,-9.930923,-0.327137
-0.245836,-9.933229,-0.341396
-0.285918,-9.929906,-0.351978
-0.291083,-9.931985,-0.35753
-0.296367,-9.928391,-0.358709
-0.284765,-9.933848,-0.35161
-0.272596,-9.933117,-0.357064
-0.261116,-9.932748,-0.34721
-0.249851,-9.930856,-0.352077
-0.256145,-9.930029,-0.358845
-0.250515,-9.931787,-0.355334
-0.232749,-9.926815,-0.34571
-0.233291,-9.933117,-0.347554
-0.225977,-9.932424,-0.346189
-0.243734,-9.931588,-0.344495
-0.232271,-9.931468,-0.34017
-0.235691,-9.931397,-0.346258
-0.237149,-9.929459,-0.345758
-0.233434,-9.931674,-0.350292
-0.23479,-9.933305,-0.348425
-0.226995,-9.927728,-0.347207
-0.223753,-9.930509,-0.352927
-0.226389,-9.929312,-0.3558
-0.218008,-9.925961,-0.356041
-0.22112,-9.930509,-0.352928
-0.214418,-9.934819,-0.351729
-0.216333,-9.935537,-0.34407
-0.234906,-9.933745,-0.346258
-0.237878,-9.930189,-0.336089
-0.218967,-9.922847,-0.341196
-0.221773,-9.930987,-0.333925
-0.224948,-9.939847,-0.330899
-0.225194,-9.932424,-0.333774
-0.216766,-9.931642,-0.342848
-0.211542,-9.932426,-0.341675
-0.21546,-9.930337,-0.343284
-0.212979,-9.934824,-0.341437
-0.208908,-9.929314,-0.344308
-0.217293,-9.931944,-0.344546
-0.207474,-9.930989,-0.345027
-0.214178,-9.936496,-0.343111
-0.205885,-9.935561,-0.333273
-0.216331,-9.933622,-0.345744
-0.204361,-9.932425,-0.340237
-0.210892,-9.935123,-0.34198
-0.210825,-9.930033,-0.347659
-0.207625,-9.932949,-0.35025
-0.200771,-9.933142,-0.3467
-0.212978,-9.933383,-0.338081
-0.203272,-9.932947,-0.349597
-0.211066,-9.929791,-0.351491
-0.205319,-9.929871,-0.347182
-0.204507,-9.931568,-0.344881
-0.210455,-9.933381,-0.34481
-0.209627,-9.931707,-0.351251
-0.208591,-9.936414,-0.337444
-0.200106,-9.93518,-0.337376
-0.194604,-9.931168,-0.347509
-0.194385,-9.93187,-0.356757
-0.198574,-9.93092,-0.348549
-0.202206,-9.928595,-0.33569
-0.172116,-9.933622,-0.335847
-0.197376,-9.934114,-0.341568
-0.21657,-9.927876,-0.35101
-0.215898,-9.931855,-0.357214
-0.197179,-9.938173,-0.344788
-0.203925,-9.931205,-0.342416
-0.214658,-9.932902,-0.356041
-0.217637,-9.928811,-0.350904
-0.205884,-9.933817,-0.346333
-0.210106,-9.930029,-0.359154
-0.203163,-9.934102,-0.362024
-0.214371,-9.936431,-0.364395
-0.211326,-9.9336,-0.366574
-0.217052,-9.934819,-0.365138
-0.206757,-9.933602,-0.338063
-0.215375,-9.933142,-0.35125
-0.223081,-9.931204,-0.359827
-0.232852,-9.932185,-0.363223
-0.23309,-9.92533,-0.365268
-0.237442,-9.932946,-0.35787
-0.239558,-9.933383,-0.346463
-0.221337,-9.9299,-0.364397
-0.229979,-9.933622,-0.356039
-0.227347,-9.929553,-0.357399
-0.219524,-9.930992,-0.35181
-0.217766,-9.931946,-0.354121
-0.198615,-9.930031,-0.348857
-0.215679,-9.933819,-0.353513
-0.220164,-9.93099,-0.359631
-0.219596,-9.93447,-0.35221
-0.216093,-9.933383,-0.349812
-0.215025,-9.931207,-0.340454
-0.211305,-9.926682,-0.361545
-0.222644,-9.930119,-0.356562
-0.213698,-9.933144,-0.363223
-0.21742,-9.924677,-0.362876
-0.208189,-9.931705,-0.356758
-0.21176,-9.930118,-0.363962
-0.218964,-9.928594,-0.367055
-0.248546,-9.933381,-0.35874
-0.228303,-9.929898,-0.34764
-0.221358,-9.931229,-0.345026
-0.203925,-9.931424,-0.345897
-0.210825,-9.930269,-0.350056
-0.210018,-9.930332,-0.355691
-0.223035,-9.935779,-0.357953
-0.211545,-9.932077,-0.363745
-0.226147,-9.929553,-0.36059
-0.229825,-9.932514,-0.359609
-0.249849,-9.92644,-0.369208
-0.268785,-9.931204,-0.363093
-0.257477,-9.929481,-0.357352
-0.238097,-9.931205,-0.364545
-0.232053,-9.926916,-0.358516
-0.224231,-9.931948,-0.359393
-0.235267,-9.932079,-0.360044
-0.228064,-9.931944,-0.365854
-0.236354,-9.932514,-0.359392
-0.239557,-9.931467,-0.362506
-0.228954,-9.932513,-0.362656
-0.219205,-9.932425,-0.351971
-0.219596,-9.932296,-0.364616
-0.227344,-9.925242,-0.357236
-0.232613,-9.928836,-0.366095
-0.228305,-9.933819,-0.364182
-0.233809,-9.923566,-0.361787
-0.238095,-9.929467,-0.374845
-0.23812,-9.931231,-0.365138
-0.227429,-9.932296,-0.376586
-0.227106,-9.931468,-0.352208
-0.215897,-9.929464,-0.366573
-0.23043,-9.933385,-0.364714
-0.213138,-9.934978,-0.364616
-0.201567,-9.922289,-0.384212
-0.230457,-9.934341,-0.387164
-0.221553,-9.932077,-0.390735
-0.216171,-9.928035,-0.369206
-0.184488,-9.929791,-0.383891
-0.196744,-9.934254,-0.375716
-0.179463,-9.932425,-0.390991
-0.177155,-9.934036,-0.390735
-0.187363,-9.9341,-0.378784
-0.181073,-9.931643,-0.380285
-0.200931,-9.929873,-0.394745
-0.183322,-9.932294,-0.382464
-0.211979,-9.930552,-0.39291
-0.218965,-9.929072,-0.405119
-0.203563,-9.928521,-0.398933
-0.217528,-9.928355,-0.398897
-0.214417,-9.930031,-0.368967
-0.214809,-9.928812,-0.385947
-0.225189,-9.932665,-0.396263
-0.251526,-9.933142,-0.400809
-0.242906,-9.926679,-0.386209
-0.246148,-9.93273,-0.37724
-0.198854,-9.932668,-0.374475
-0.173077,-9.932584,-0.365617
-0.163899,-9.930989,-0.362584
-0.203706,-9.93469,-0.381159
-0.207474,-9.926199,-0.383812
-0.215898,-9.932513,-0.373758
-0.177544,-9.929792,-0.359392
-0.176286,-9.929248,-0.361786
-0.181854,-9.932425,-0.370168
-0.177587,-9.926418,-0.380288
-0.199092,-9.93075,-0.371362
-0.195222,-9.93186,-0.371145
-0.195048,-9.932851,-0.361165
-0.210093,-9.931354,-0.37042
-0.19275,-9.929682,-0.357432
-0.18808,-9.938413,-0.339999
-0.160393,-9.923806,-0.331966
-0.15504,-9.940565,-0.334491
-0.170191,-9.929682,-0.368969
-0.212981,-9.932904,-0.389798
-0.214415,-9.92596,-0.377109
-0.215613,-9.932901,-0.375912
-0.204142,-9.932296,-0.367226
-0.194786,-9.932424,-0.376628
-0.189123,-9.928596,-0.382245
-0.195981,-9.930989,-0.372562
-0.19043,-9.933817,-0.376803
-0.189517,-9.936017,-0.390994
-0.195874,-9.93099,-0.368749
-0.177782,-9.931707,-0.370404
-0.185207,-9.935995,-0.377237
-0.200769,-9.93482,-0.381897
-0.186732,-9.932513,-0.374191
-0.193111,-9.933861,-0.365375
-0.187457,-9.927941,-0.366065
-0.198375,-9.931308,-0.370885
-0.193826,-9.933622,-0.375194
-0.184991,-9.929248,-0.367881
-0.207471,-9.931705,-0.373038
-0.197399,-9.931207,-0.372013
-0.200768,-9.931227,-0.371605
-0.208715,-9.929685,-0.369186
-0.200772,-9.933382,-0.375432
-0.198922,-9.927723,-0.371361
-0.208911,-9.929312,-0.374237
-0.194566,-9.935558,-0.377457
-0.204362,-9.930987,-0.371602
-0.200804,-9.931714,-0.363016
-0.1714,-9.931711,-0.377188
-0.18425,-9.931706,-0.363702
-0.198413,-9.93382,-0.362439
-0.191517,-9.924094,-0.362441
-0.210748,-9.938704,-0.355135
-0.184474,-9.928927,-0.352609
-0.195496,-9.933914,-0.358597
-0.18129,-9.927069,-0.361786
-0.181139,-9.929791,-0.367772
-0.192171,-9.928161,-0.365488
-0.182574,-9.925959,-0.370164
-0.176285,-9.927941,-0.365051
-0.163661,-9.925245,-0.373517
-0.163005,-9.931857,-0.363745
-0.162459,-9.932904,-0.368251
-0.167011,-9.936017,-0.37256
-0.177547,-9.93458,-0.383333
-0.175194,-9.932514,-0.381592
-0.186882,-9.931946,-0.382138
-0.18194,-9.929682,-0.368315
-0.176109,-9.929792,-0.376628
-0.184729,-9.931705,-0.386685
-0.197833,-9.932297,-0.384639
-0.197418,-9.932184,-0.377347
-0.201098,-9.928375,-0.377455
-0.198618,-9.930272,-0.375432
-0.201316,-9.930552,-0.363961
-0.190952,-9.931227,-0.36777
-0.197615,-9.931421,-0.373975
-0.20101,-9.932665,-0.372321
-0.198456,-9.932584,-0.359792
-0.196959,-9.929754,-0.371288
-0.199814,-9.933385,-0.366096
-0.202924,-9.934341,-0.370404
-0.193347,-9.931706,-0.363222
-0.20632,-9.932728,-0.359172
-0.189035,-9.932425,-0.354602
-0.213937,-9.93251,-0.365484
-0.209387,-9.930748,-0.373518
-0.217857,-9.935561,-0.372668
-0.219923,-9.937694,-0.376151
-0.216549,-9.927286,-0.368969
-0.217767,-9.932665,-0.362984
-0.197896,-9.930031,-0.363942
-0.212021,-9.935778,-0.370406
-0.216332,-9.932511,-0.370493
-0.219685,-9.930751,-0.374236
-0.223274,-9.931706,-0.370404
-0.214375,-9.924457,-0.365484
-0.213937,-9.93027,-0.367291
-0.209367,-9.937303,-0.361134
-0.202402,-9.932513,-0.37506
-0.218724,-9.932905,-0.373996
-0.219378,-9.927072,-0.368097
-0.22567,-9.933383,-0.36418
-0.224604,-9.931643,-0.360478
-0.074759,-9.961316,-0.593882
-0.084575,-9.960537,-0.663373
-0.045109,-9.954329,-0.694863
0.050877,-9.941084,-0.823785
0.059556,-9.943957,-0.829531
-0.022038,-9.948669,-0.685993
0.028551,-9.945574,-0.760518
0.068561,-9.94127,-0.839984
0.036212,-9.942042,-0.822169
0.018773,-9.944644,-0.787148
0.022685,-9.94737,-0.769975
0.02367,-9.945296,-0.775123
0.011073,-9.945694,-0.778235
-0.003412,-9.947847,-0.752557
0.003156,-9.945678,-0.759669
0.039444,-9.944316,-0.832584
0.018974,-9.943838,-0.802716
-0.014801,-9.947745,-0.729524
-0.005387,-9.948267,-0.765127
0.014801,-9.94671,-0.77681
-0.014964,-9.952371,-0.741767
-0.062728,-9.956348,-0.674985
-0.063011,-9.954003,-0.647087
-0.042198,-9.95527,-0.683425
-0.040941,-9.955749,-0.680971
-0.064883,-9.955869,-0.660022
-0.071772,-9.956396,-0.649373
-0.054958,-9.956886,-0.666023
-0.051834,-9.953654,-0.690129
-0.054708,-9.954732,-0.698688
-0.0752,-9.95471,-0.666568
-0.066918,-9.954014,-0.646375
-0.046252,-9.955417,-0.682239
-0.01529,-9.95139,-0.736326
-0.022266,-9.951499,-0.72676
-0.029547,-9.952043,-0.699923
-0.045849,-9.95557,-0.65637
-0.04537,-9.957785,-0.661338
-0.035587,-9.953458,-0.676471
-0.006704,-9.952936,-0.728376
-0.008924,-9.952806,-0.725389
-0.018615,-9.952278,-0.689231
-0.018615,-9.954372,-0.690667
-0.03624,-9.955199,-0.679083
-0.062908,-9.956766,-0.641826
-0.058984,-9.957974,-0.629784
-0.040103,-9.958084,-0.652366
-0.031603,-9.955988,-0.668341
-0.008815,-9.95471,-0.699597
0.019094,-9.950243,-0.767521
0.071587,-9.945635,-0.830429
0.028894,-9.947689,-0.764839
0.022206,-9.955091,-0.696533
0.015345,-9.953132,-0.719349
0.031669,-9.946656,-0.750746
0.022924,-9.95144,-0.768359
0.012025,-9.955091,-0.711241
-0.027354,-9.958982,-0.62782
-0.052732,-9.960238,-0.621595
-0.049299,-9.960369,-0.619282
-0.036751,-9.959341,-0.649607
-0.013005,-9.958791,-0.679137
0.024921,-9.955308,-0.714234
0.018974,-9.952577,-0.698628
-0.016379,-9.95841,-0.644584
-0.033279,-9.957186,-0.625545
0.011911,-9.957126,-0.687315
0.03477,-9.955036,-0.711078
0.049734,-9.952261,-0.73366
0.011911,-9.954073,-0.688213
-0.01997,-9.956885,-0.671574
0.007302,-9.95515,-0.707906
0.013603,-9.952097,-0.725878
0.019692,-9.950602,-0.729154
0.024241,-9.950662,-0.758782
0.005278,-9.953622,-0.741658
-0.012189,-9.957756,-0.678321
-0.030526,-9.953595,-0.668102
0.012134,-9.953132,-0.704657
0.006943,-9.957006,-0.719936
-0.008434,-9.956343,-0.68768
-0.04112,-9.957126,-0.634284
-0.030472,-9.958899,-0.628859
-0.022625,-9.953413,-0.684083
-0.006802,-9.952424,-0.710969
0.032485,-9.948726,-0.763043
0.027354,-9.94743,-0.793498
0.003412,-9.944736,-0.783562
-0.001578,-9.950574,-0.74155
-0.030107,-9.954014,-0.700065
-0.019154,-9.948833,-0.720328
-0.010447,-9.950356,-0.746229
-0.035913,-9.955449,-0.720116
-0.036512,-9.952152,-0.689421
-0.004968,-9.951619,-0.72664
0.027152,-9.944045,-0.802275
