Acc_X,Acc_Y,Acc_Z
-3.071453,-9.945724,-0.917837
-2.514148,-9.382006,0.20786
-3.346382,-10.149815,-0.418419
-3.243932,-9.028234,-0.209422
-2.848405,-9.527788,-0.172383
-3.821617,-9.620591,-0.252679
-3.451048,-9.799952,-0.123334
-3.03657,-9.775085,-0.945868
-3.06715,-9.733142,0.355151
-3.357741,-10.402262,-0.581229
-2.966351,-8.934189,-0.401838
-3.302766,-10.185427,-0.539857
-3.095978,-9.217515,-0.105135
-2.789934,-9.867721,0.143779
-3.78795,-9.768813,-0.611363
-3.224866,-10.074325,0.375907
-3.002815,-9.538256,-0.579187
-2.861543,-9.312285,-0.015562
-3.513912,-10.024476,-0.548127
-3.02914,-9.285293,-0.048395
-2.553556,-9.610395,0.169038
-3.82822,-9.669111,-0.37881
-3.501901,-10.117117,0.279759
-2.941374,-9.728256,-0.457195
-2.63797,-9.432574,-0.257623
-3.293241,-10.021773,-0.480377
-2.800418,-9.296432,-0.031687
-2.852643,-9.631113,-0.034069
-3.721734,-9.655358,-0.351807
-3.517826,-10.419291,0.055196
-2.906253,-9.308709,-0.83866
-2.543839,-9.554255,-0.009334
-3.610896,-10.17983,-0.42013
-3.042011,-9.108353,0.128996
-2.928524,-10.035461,-1.156383
-3.183619,-9.528676,-0.663053
-2.840685,-9.71194,-0.395853
-3.311165,-9.38354,-0.096383
-2.629123,-9.720495,0.203344
-3.606767,-9.71525,-0.658454
-3.731592,-10.037831,0.093145
-2.721755,-9.611247,-0.537773
-3.046803,-9.187676,0.014619
-3.288776,-10.055793,-0.263006
-2.948653,-9.06846,-0.020034
-2.810081,-9.553526,-0.070047
-3.671908,-9.819345,-0.261548
-3.621926,-9.95792,0.504481
-3.142003,-9.526845,-1.095224
-3.003607,-9.518715,0.712146
-3.423091,-9.982406,-0.517365
-2.640594,-9.603255,-0.549049
-3.247559,-10.019895,-0.302057
-2.985133,-9.440969,-0.41795
-3.094705,-9.540129,0.393746
-3.629864,-9.669418,-1.241031
-3.620146,-10.141128,0.327941
-2.897266,-9.552689,-1.046918
-3.081022,-9.186301,0.483463
-3.648623,-9.982819,-0.875415
-2.926863,-9.310484,-0.349489
-3.285372,-9.940549,-1.080841
-3.012122,-9.517401,-0.914518
-2.898745,-10.013309,-0.589361
-2.952487,-9.192279,-0.026967
-3.129239,-9.625043,-0.008362
-3.759212,-9.418674,-0.170736
-3.347763,-9.852088,-0.349659
-3.289908,-9.895592,-0.968633
-3.027169,-9.97648,1.045175
-2.896319,-9.623343,-0.28082
-3.195309,-9.289081,0.265475
-3.202552,-10.160927,-1.006568
-2.706451,-9.259786,0.267675
-3.137093,-9.956561,0.058458
-3.416807,-9.466639,-0.584678
-3.652672,-9.662682,0.584132
-3.443752,-9.896286,-0.942943
-3.321556,-9.884208,0.368399
-2.849197,-9.75322,-1.020981
-2.585703,-9.493327,-0.104588
-3.016079,-9.865616,-0.753235
-3.663672,-9.109665,-0.123301
-3.523533,-10.116033,-0.789621
-3.17942,-9.065077,-0.162692
-3.384504,-9.739911,-0.70599
-3.516883,-9.433437,-0.147726
-2.986591,-9.916995,-0.202803
-3.291995,-9.938785,-0.914294
-3.191225,-9.827087,-0.14874
-2.672993,-9.81764,-0.58239
-3.090298,-9.227077,0.171009
-3.371986,-10.289908,-0.411063
-2.657474,-9.208138,-0.067564
-2.703928,-9.688349,-0.186101
-3.701559,-9.731849,-0.427312
-3.23997,-9.917655,0.460415
-3.048127,-9.810204,-1.021617
-2.879998,-9.504705,0.724311
-3.431472,-9.837703,-0.709529
-2.642811,-9.728983,-0.313107
-3.636077,-9.816827,-0.362589
-3.13695,-9.21993,-0.047972
-2.917106,-9.680709,-0.342494
-3.698507,-9.490646,-0.311311
-3.416181,-9.794825,-0.827016
-3.513291,-9.773495,-0.992288
-3.032936,-9.936454,0.334347
-3.035355,-9.759611,-0.461852
-2.669616,-9.522985,-0.432752
-3.573419,-10.106108,-0.435037
-2.879093,-9.297316,-0.110473
-2.471362,-9.446922,-0.322742
-3.819577,-9.882052,-0.52137
-3.33505,-9.951174,0.347631
-3.000679,-9.723417,-0.596949
-2.607444,-9.348124,-0.288202
-3.37466,-10.311259,-0.573622
-2.283288,-9.382676,-0.517329
-3.153697,-9.500919,-0.097467
-3.854507,-9.655164,-0.629499
-3.378947,-9.582955,0.469684
-3.205056,-9.607659,-0.852408
-3.592409,-9.854208,0.604173
-3.040167,-9.458827,-0.763653
-2.412686,-9.364691,-1.207787
-3.380742,-10.337935,-0.564854
-2.750104,-9.152544,0.194783
-3.51836,-10.092758,-0.454267
-2.662599,-9.084641,-0.073446
-2.941261,-9.963487,-0.634172
-3.168744,-9.572001,-0.14416
-3.173919,-9.421069,0.501326
-3.754407,-9.405673,-0.595558
-3.650413,-9.758539,0.183124
-3.054149,-9.693051,-0.944023
-2.981251,-9.504366,0.517277
-3.095545,-10.111489,-0.420006
-3.04777,-9.286654,-0.180875
-3.310615,-9.662189,-0.543872
-3.320867,-9.616928,-0.434185
-2.853015,-9.596899,-0.123026
-3.300002,-9.866824,-1.252467
-3.220363,-9.5913,0.260677
-3.145183,-9.683784,-1.068685
-3.226559,-9.535168,0.784133
-3.166102,-9.812599,-0.495107
-2.966283,-9.417727,-0.420016
-3.740956,-9.951951,-0.893717
-2.855262,-9.344481,-0.256109
-2.754247,-9.914092,-0.421485
-3.452987,-9.590024,-0.301636
-3.792556,-10.029327,0.465232
-3.102723,-9.550987,-0.375566
-2.762468,-9.50558,-0.463049
-3.570886,-10.448812,-0.834994
-2.701416,-8.962764,-0.128565
-2.818186,-9.60277,-0.298563
-4.093422,-9.807412,-0.549097
-3.686019,-9.785193,0.163386
-3.12212,-9.945448,-0.696017
-2.812043,-9.353334,-0.386223
-3.487187,-10.247313,-0.74065
-2.876652,-9.09579,-0.18225
-2.996165,-9.77446,-0.01553
-3.85484,-9.556844,-0.436854
-3.603678,-10.51857,-0.149573
-2.931809,-9.207121,-0.708865
-2.829805,-9.668559,-0.66332
-3.526097,-10.104455,-0.745413
-3.030057,-9.123753,-0.128737
-3.080017,-9.721567,-0.035702
-3.383396,-9.874301,-1.149346
-3.254591,-9.245536,0.054105
-3.619984,-9.49267,-0.778358
-3.551975,-9.635624,0.028854
-3.224197,-9.903517,-0.806425
-3.497983,-9.466293,0.091524
-2.931279,-10.367621,-0.569869
-3.049526,-8.803409,0.194124
-3.177009,-9.960382,-0.231138
-3.30164,-9.279998,-0.14523
-2.679791,-9.769992,0.175165
-3.75696,-9.636206,-0.682224
-3.370518,-10.186066,0.620859
-3.177142,-9.571529,-0.624778
-2.405849,-9.795795,-0.131196
-3.576022,-9.979033,-0.363866
-2.866264,-9.255353,-0.158745
-2.839741,-9.595381,-0.135653
-3.812685,-9.667479,-0.32752
-3.324226,-9.946922,0.253856
-2.717661,-10.054772,-0.38482
-3.451859,-9.056432,0.570926
-3.341654,-10.005774,-0.449687
-3.046153,-9.322827,-0.215624
-3.827186,-10.024921,-0.46413
-3.277517,-9.069786,-0.080917
-2.923778,-9.389427,-0.473647
-3.623527,-9.773294,-0.476802
-3.045007,-9.67838,-1.09863
-3.049614,-9.86133,-1.472143
-2.972894,-9.890554,0.563447
-3.355701,-9.699623,-0.852514
-3.387941,-9.662436,0.999035
-2.962113,-9.641725,-0.657807
-2.75974,-9.533058,-0.723894
-3.49094,-9.998074,-0.879222
-2.780375,-9.363143,-0.23991
-3.018166,-9.888021,-0.660039
-3.171701,-9.433702,-0.100222
-2.931539,-9.726655,0.320338
-3.272257,-9.680501,-0.83398
-3.475588,-10.071081,0.498285
-3.09514,-9.541913,-0.528344
-2.854503,-9.530087,-0.219118
-3.78302,-10.127709,-0.613188
-2.918613,-8.943913,0.240229
-3.217262,-10.083146,-0.201535
-3.410492,-9.216237,-0.132231
-2.979729,-9.736402,0.137231
-3.619321,-9.615031,-0.523036
-3.5132,-10.273067,0.092759
-2.920504,-9.419001,-0.496762
-2.689643,-9.679758,-0.650446
-3.202716,-10.267225,-0.147969
-2.695354,-9.417317,-1.156561
-3.403851,-9.520756,0.097194
-3.372556,-9.499269,-0.079219
-2.850443,-9.795858,0.092068
-3.773197,-9.6905,-0.671897
-3.723124,-9.991463,0.500019
-2.851252,-9.727157,-0.362689
-2.919765,-9.094755,-0.105327
-3.729972,-10.04248,-0.514349
-2.73622,-9.205441,-0.266179
-3.025251,-9.564934,-0.283503
-3.82287,-9.581086,-0.235321
-3.391775,-9.723145,0.364598
-3.212737,-9.83427,-0.896805
-2.987624,-9.546152,0.66397
-3.422076,-10.169952,-0.470007
-2.600281,-9.367752,-0.376844
-3.259261,-10.007609,-0.393726
-3.502611,-9.437222,-0.152754
-3.459239,-9.751917,0.164585
-3.433708,-9.626575,-0.828605
-3.135191,-9.899507,0.130921
-3.110472,-10.402895,-0.864782
-3.088554,-9.069851,0.035747
-3.453372,-9.909565,-0.310225
-3.261097,-9.252845,-0.141679
-3.059613,-9.882949,0.360556
-3.380413,-9.65286,-0.94941
-3.114792,-9.724874,-1.38173
-3.479428,-9.667513,-0.922384
-2.776417,-9.407384,0.66609
-3.498932,-10.210371,-0.395184
-2.788048,-9.380757,-0.21323
-3.957525,-9.950266,-0.85074
-2.893053,-9.208084,-0.231267
-3.259829,-9.604305,-0.925588
-3.461643,-9.66837,-0.15771
-2.783767,-9.833838,0.139607
-3.295583,-9.882507,-0.826334
-3.497859,-10.014752,0.260774
-3.263156,-10.387366,-0.554803
-2.741578,-9.245736,-0.149438
-3.243309,-10.151252,-0.254674
-3.438769,-9.154294,-0.341287
-2.974478,-9.892349,0.312338
-3.79481,-9.784811,-0.798046
-3.482476,-10.021203,0.418586
-3.157742,-9.812991,-0.587631
-2.758719,-9.208963,-0.114306
-3.226252,-9.881516,-0.486152
-3.412536,-9.49437,-0.18341
-2.769638,-9.811438,-0.046105
-3.333363,-9.511124,-0.72231
-3.329419,-10.318009,0.160746
-2.963008,-9.568227,-0.373346
-2.741238,-9.408297,-0.326826
-3.485375,-9.785491,-0.254465
-2.783788,-9.510631,-0.579274
-3.112263,-9.586817,-0.081203
-3.736928,-9.415731,-0.577682
-3.211346,-9.915076,-0.190005
-3.763345,-9.669695,-0.919098
-3.169633,-9.59966,0.397837
-3.134317,-10.348709,-0.929452
-3.23631,-8.803551,0.233716
-3.285945,-9.660313,-0.163226
-3.736587,-9.340107,-0.161935
-3.234826,-9.60494,-0.042594
-3.655524,-9.50359,-0.692083
-3.77386,-10.183657,0.329769
-3.027685,-9.317035,-0.804307
-2.825838,-9.334474,-0.026288
-3.602059,-10.345505,-0.756163
-2.733952,-9.065305,0.107043
-3.331387,-10.052927,-0.402988
-3.377022,-9.333149,-0.340899
-2.901192,-9.633087,0.203789
-3.645658,-10.001791,-1.255128
-3.904671,-9.8835,0.522716
-2.84855,-9.72588,-0.423321
-3.239249,-9.227694,-0.253979
-3.883659,-9.877068,-0.696431
-2.942425,-9.279958,-0.18767
-3.032855,-9.768235,-1.162965
-3.18018,-9.695966,-0.681652
-2.546779,-9.830769,0.014629
-3.722175,-9.442438,-0.316342
-3.233913,-9.680537,0.705238
-3.562783,-9.757327,-0.784425
-3.539528,-10.159778,-0.071809
-3.528455,-9.917452,-0.730108
-2.724638,-9.575319,-0.841471
-3.292468,-10.340645,-0.614975
-2.86628,-9.124142,0.010693
-3.053151,-10.041155,-0.20942
-3.221965,-9.283679,-0.311052
-2.737594,-9.820031,0.034628
-3.694658,-9.639557,-0.55738
-3.637518,-9.706421,0.456585
-3.196744,-9.769427,-0.679791
-2.868447,-9.23148,0.396751
-3.341837,-10.358127,-0.944496
-2.844278,-9.136007,0.233002
-3.395069,-9.963217,-0.640213
-3.001925,-9.361362,-0.239275
-2.935344,-10.003451,0.168686
-3.598388,-9.516273,-0.617575
-3.507741,-9.857,0.204124
-3.001386,-9.337875,-0.75265
-2.913161,-9.43338,-1.107351
-3.327993,-10.162595,-0.595083
-2.628299,-9.401156,-0.173402
-3.180533,-10.252007,0.067001
-2.714912,-9.356217,-0.291381
-3.241326,-10.202468,-0.378354
-3.200361,-9.112949,-0.2891
-2.890051,-9.485312,-0.139063
-3.659045,-9.671713,-0.391505
-3.386599,-9.721883,0.256681
-2.919457,-9.663016,-0.901018
-3.348363,-9.898644,0.381621
-3.378923,-10.185603,-0.253574
-2.840632,-9.421991,-0.395695
-3.322068,-9.801328,-0.29989
-2.908447,-9.324671,-0.083779
-2.827552,-9.536753,-0.356655
-3.755393,-9.727058,-0.426573
-2.715624,-9.56697,0.160929
-3.565674,-9.806177,-1.342839
-3.887148,-9.980683,0.204817
-2.873689,-9.557315,-0.569011
-3.236837,-9.165779,-0.208859
-3.547862,-9.895254,-0.294541
-3.094069,-9.422881,-0.627168
-3.585948,-9.86039,-1.114339
-2.644589,-9.655342,-0.761427
-2.484809,-9.697731,-0.519267
-3.043012,-9.595525,-0.703623
-3.298643,-9.857219,0.327342
-3.587271,-9.503448,-0.443491
-3.230263,-9.905865,-0.639397
-3.166241,-9.88018,-0.807136
-2.427057,-9.722254,-0.304322
-3.594032,-10.224648,-0.429865
-2.993545,-9.073168,-0.088585
-3.161326,-9.893094,-0.387879
-3.420716,-9.456498,-0.331128
-2.880084,-9.708558,-0.101349
-3.924518,-10.070934,-1.368901
-3.046023,-9.761061,-0.058957
-3.429166,-10.579978,-0.769947
-2.742153,-9.190451,-0.460738
-3.299016,-9.76366,-1.139957
-3.242497,-9.907324,-0.840697
-2.468193,-9.681148,0.243346
-3.73612,-9.636985,-0.252993
-3.702379,-9.790071,0.064698
-3.238918,-9.944073,-0.562734
-3.103572,-9.261281,-0.734474
-3.314918,-10.486831,-0.836337
-2.969699,-8.977041,0.074383
-3.226218,-9.749949,-0.22389
-3.902496,-9.286176,-0.179248
-3.520123,-9.678692,0.476754
-3.360824,-9.534927,-0.751924
-3.537611,-9.875031,0.410266
-3.372409,-9.905357,-0.459704
-3.064368,-9.373816,-0.430293
-3.298627,-9.699446,-0.460593
-3.763703,-9.342266,-0.224656
-3.425472,-9.84575,0.138039
-3.413216,-9.510791,-0.723137
-3.509414,-9.938753,0.277113
-3.382463,-9.662997,-0.381295
-2.89425,-9.491829,-0.533761
-3.570107,-9.971726,-0.699952
-3.065192,-9.364709,-0.274314
-3.319594,-9.886973,-0.277727
-3.469463,-9.456816,-0.793924
-3.712323,-10.179093,0.277339
-2.319083,-9.649987,-1.026127
-3.454348,-9.258152,0.027048
-3.771394,-9.789001,-0.521428
-3.147,-9.22952,-0.160978
-3.704939,-10.116418,-0.448085
-3.0253,-9.093971,-0.16871
-2.878211,-9.757187,-0.451579
-3.719829,-9.686293,-0.668403
-3.737807,-9.726655,0.294821
-3.193137,-9.709538,-0.741701
-2.932407,-9.410683,-0.026735
-3.572845,-10.233221,-0.638653
-3.005427,-9.124337,-0.18085
-2.844247,-9.584653,-0.137003
-3.875034,-9.653692,-0.451561
-3.702827,-10.277639,0.450304
-2.955868,-9.555081,-0.727465
-2.849329,-9.322492,-0.277217
-3.495834,-9.874219,-0.464575
-3.38409,-9.192668,-0.148246
-3.287714,-9.575293,0.432682
-3.69575,-9.910798,-0.979777
-3.372814,-9.698278,0.29204
-2.852529,-9.924694,-0.897842
-3.023332,-9.32255,-0.296845
-3.311051,-9.606249,-0.415798
-3.745781,-9.298851,-0.112228
-3.644088,-9.619207,0.073266
-3.345317,-9.695809,-0.948068
-3.23324,-9.776886,-1.035023
-3.269212,-9.808498,-1.155097
-2.45823,-9.553253,0.796832
-3.642742,-10.384958,-0.468538
-3.150219,-8.949089,0.245843
-3.672948,-10.005708,-0.717371
-2.852903,-9.359268,-0.167048
-3.187701,-9.857591,-0.006083
-3.349071,-9.698548,-0.881048
-3.574818,-9.720022,0.367688
-3.241362,-9.730317,-0.399268
-2.818994,-9.415215,-0.446114
-3.805456,-10.125876,-0.686954
-3.392928,-9.315621,-0.129269
-3.282062,-9.773276,0.176492
-3.687422,-9.664619,-0.777429
-3.413549,-9.381889,0.208069
-3.40129,-10.276839,-0.519814
-2.974925,-9.253589,-0.084056
-3.241238,-10.000386,-0.501937
-3.51032,-9.229728,-0.182817
-3.502083,-9.782074,0.108809
-3.236239,-9.840785,-0.71363
-3.03512,-9.413953,0.029895
-3.585317,-10.471904,-0.871172
-3.09818,-9.112566,-0.047402
-3.020409,-9.517304,-0.246039
-3.41164,-9.984451,-0.866523
-3.386492,-9.410444,0.111718
-3.309951,-9.884993,-0.441065
-2.88401,-9.273165,-0.3742
-3.315921,-10.159601,-0.726042
-3.402079,-9.280283,-0.399573
-3.162251,-9.589359,0.435908
-3.533031,-9.608688,-0.954424
-3.266924,-9.515016,0.5904
-3.299242,-10.046976,-1.080044
-3.240788,-8.924587,0.230787
-3.282532,-9.548965,-0.389899
-3.863889,-9.578126,-0.490847
-4.253024,-10.133829,0.21729
-3.189059,-9.246043,-1.104852
-2.879707,-9.240178,-0.02488
-3.639028,-10.379868,-0.566933
-3.140513,-9.022936,-0.095218
-3.348491,-9.648507,-0.118078
-3.969618,-9.555597,-0.554824
-4.039458,-10.345029,0.225407
-2.965219,-9.822986,-0.507483
-2.729827,-9.386079,-0.625631
-3.840463,-9.891753,-0.192116
-3.598793,-9.0957,-0.590413
-3.225149,-9.566156,-0.1167
-4.183559,-9.456142,-0.639899
-3.961859,-10.127256,0.381422
-3.503243,-9.539768,-0.565848
-3.06516,-9.679419,-1.218034
-3.367797,-9.772109,-0.774067
-2.78897,-9.372396,-0.114097
-3.593171,-10.16328,-0.024178
-3.168872,-9.280198,-0.038356
-2.945731,-10.072125,-0.11038
-3.561747,-9.619352,-0.900317
-3.939514,-10.241234,-0.237298
-2.787045,-9.706192,-0.362058
-2.889062,-9.200459,-0.170622
-3.815759,-9.985549,-0.432519
-3.325476,-9.216445,-0.129445
-3.036026,-9.800615,-0.020739
-3.901253,-9.875579,-0.828475
-3.666321,-9.93797,0.515316
-3.03787,-9.73717,-0.690064
-3.095545,-9.043409,-0.0047
-3.227659,-9.723145,-0.425763
-3.614301,-9.344188,-0.115339
-3.559256,-9.68445,0.295118
-3.595392,-9.893075,-0.768971
-3.247862,-9.565308,0.552498
-3.516921,-10.097642,-1.11201
-2.883041,-9.084677,0.128336
-3.039649,-9.865341,-0.379966
-3.67724,-9.510695,-0.192751
-3.859016,-9.678238,0.175618
-3.103132,-9.810999,-0.768028
-3.298854,-9.734484,-1.28127
-3.019922,-10.213081,-0.871598
-2.612252,-9.476479,-0.708991
-3.156649,-10.172488,-0.260493
-3.480021,-9.110731,-0.46653
-3.676995,-9.869397,-0.016543
-3.175521,-9.659953,-0.862406
-3.428198,-9.644796,0.129903
-3.232723,-10.018035,-1.130646
-3.140885,-8.960789,0.16919
-3.407354,-9.834852,-0.389339
-3.632216,-9.299573,-0.162366
-3.687411,-9.765641,0.341578
-3.561707,-9.790488,-0.925359
-3.09484,-9.308182,0.580787
-3.348615,-10.356233,-1.020075
-2.898997,-9.092145,0.002267
-3.337646,-9.475686,-0.295393
-3.808683,-9.506355,-0.270439
-3.656512,-10.04332,0.359276
-3.491943,-9.488132,-0.722178
-2.91871,-9.573184,-0.433092
-3.577642,-10.022955,-0.514771
-3.228031,-9.110698,-0.614323
-3.229379,-9.529248,-0.262691
-3.9664,-9.381048,-0.305633
-3.863362,-9.617138,0.084184
-3.49754,-9.730295,-0.515061
-2.85989,-9.663437,-0.79646
-3.386181,-9.806324,-0.573883
-2.862818,-9.316841,0.358289
-3.487402,-10.272833,-0.459581
-3.409828,-8.952939,0.217419
-3.465806,-9.786227,-0.46141
-3.290183,-9.481556,-0.0749
-3.710308,-9.43539,-0.335417
-3.5809,-9.86809,-0.920894
-3.449791,-9.452072,0.901671
-3.451161,-9.641986,-0.51024
-3.340563,-9.435178,-0.889481
-3.267179,-9.897566,-0.490358
-3.295093,-9.587635,-0.295557
-3.279021,-9.559238,0.345865
-3.813347,-9.487112,-0.892861
-3.957938,-10.012405,0.475039
-3.064778,-9.450877,-0.577468
-2.806075,-9.798692,-0.947065
-3.860527,-9.792442,-1.218226
-3.128711,-9.572475,-0.84665
-2.74891,-9.448866,-0.218305
-4.08995,-9.660059,-0.678593
-4.262956,-9.90499,0.575433
-3.077324,-9.436006,-0.245107
-2.840882,-9.639136,-0.495519
-2.539141,-9.692472,-0.178332
-3.483434,-9.900833,-0.696664
-3.35346,-10.013732,0.683889
-3.435227,-9.697002,-0.694691
-2.579612,-9.452732,-0.248645
-3.492461,-10.149556,-0.437557
-3.206181,-8.928794,0.247346
-2.922074,-9.579575,0.064579
-3.761872,-9.616541,-0.039909
-3.63841,-9.888619,0.430746
-3.2469,-9.707,-1.166557
-2.903164,-9.322552,0.325304
-3.434623,-10.473454,-0.725918
-2.993852,-9.015997,0.246409
-3.458533,-9.964396,-0.504524
-3.4113,-9.221333,-0.01037
-3.091002,-9.916432,-0.098391
-3.481881,-9.726914,-0.804436
-3.688122,-10.080424,0.784173
-2.970007,-9.241733,-0.903067
-2.913444,-9.54188,-0.443455
-3.060113,-9.873962,-0.810162
-3.078272,-9.770755,0.87256
-3.455907,-10.256477,-0.109464
-2.646418,-9.412125,0.017568
-3.660981,-10.084571,-0.538326
-3.179917,-9.000893,-0.089638
-2.959298,-9.462482,0.300683
-3.925568,-9.445142,-0.086644
-3.513174,-9.767039,0.897262
-3.353412,-9.821098,-1.005216
-3.139467,-9.586614,0.834045
-3.075497,-10.048675,-0.853031
-2.729584,-9.25484,0.315577
-3.305112,-9.80512,-0.291078
-3.134256,-9.405252,-0.043307
-3.093891,-9.840848,0.246813
-3.271332,-9.513652,-0.806937
-3.151028,-9.816179,0.355555
-3.197862,-10.085558,-0.445638
-2.856445,-9.196906,-0.185809
-3.326235,-9.994194,-0.311029
