Acc_X,Acc_Y,Acc_Z
3.103125,-9.363963,0.56563
3.070672,-9.372756,0.500606
3.046948,-9.384182,0.491029
3.10923,-9.355581,0.546477
3.081816,-9.370307,0.545639
3.095159,-9.362525,0.544572
3.123563,-9.355996,0.552734
3.116173,-9.35654,0.534865
3.085908,-9.365573,0.59953
3.140213,-9.342068,0.655249
3.16298,-9.335591,0.658166
3.257638,-9.293095,0.690836
3.234566,-9.309745,0.681694
3.189077,-9.319909,0.710479
3.110177,-9.34544,0.74525
3.089119,-9.353069,0.715387
3.037284,-9.388025,0.640808
3.066853,-9.365996,0.610761
3.078399,-9.359261,0.675274
3.063022,-9.368032,0.680312
3.05117,-9.372103,0.679834
3.099621,-9.347725,0.707051
3.095942,-9.354625,0.71862
3.069149,-9.363723,0.683
3.028447,-9.385815,0.603557
3.086006,-9.366117,0.574848
3.080467,-9.363069,0.590497
3.115618,-9.354473,0.597136
3.14215,-9.342774,0.653497
3.154252,-9.331837,0.731429
3.166658,-9.316818,0.797378
3.182612,-9.313086,0.837611
3.23239,-9.28406,0.873122
3.222813,-9.303215,0.783122
3.151727,-9.332837,0.706649
3.094288,-9.356214,0.627607
3.011579,-9.402247,0.448151
3.00173,-9.404425,0.465792
3.057504,-9.37787,0.506918
3.120951,-9.353385,0.523133
3.07607,-9.37737,0.508648
3.089239,-9.368631,0.476207
3.086017,-9.371667,0.556325
3.109829,-9.355343,0.558088
3.120722,-9.346964,0.629914
3.095703,-9.358608,0.635769
3.071043,-9.362527,0.681031
3.070564,-9.359293,0.70605
3.096574,-9.352512,0.715649
3.10898,-9.34359,0.734367
3.133651,-9.333437,0.747589
3.135969,-9.341848,0.677015
3.120842,-9.354799,0.596374
3.094626,-9.366595,0.531872
3.104191,-9.361003,0.52901
3.081218,-9.371504,0.537857
3.093788,-9.365519,0.56982
3.098641,-9.358825,0.613786
3.080859,-9.360012,0.703656
3.093907,-9.355463,0.69779
3.126708,-9.339302,0.699825
3.16557,-9.322478,0.785951
3.240313,-9.284954,0.860955
3.149333,-9.31548,0.906325
3.173188,-9.307895,0.8445
3.16002,-9.315513,0.83155
3.17519,-9.345049,0.606092
3.069247,-9.366117,0.552223
3.089826,-9.362961,0.622601
3.096062,-9.362406,0.560243
3.090436,-9.357498,0.621894
3.083297,-9.359043,0.658405
3.122159,-9.346365,0.625844
3.099653,-9.358815,0.606332
3.055654,-9.369273,0.623037
3.061106,-9.368032,0.675524
3.074754,-9.364801,0.617465
3.112353,-9.356759,0.595503
3.099838,-9.366117,0.548381
3.068528,-9.372461,0.57377
3.080358,-9.361112,0.63109
3.111624,-9.358096,0.604775
3.156875,-9.337387,0.611958
3.126827,-9.345875,0.627934
3.106586,-9.346638,0.703678
3.115814,-9.349237,0.649786
3.132051,-9.349575,0.619119
3.115575,-9.349359,0.622612
3.103756,-9.351317,0.708248
3.11453,-9.351424,0.607148
3.175789,-9.329126,0.628717
0.381857,-9.874106,-1.069888
0.319107,-9.87639,-1.068341
0.334868,-9.875188,-1.075258
0.352836,-9.876284,-1.041302
0.363464,-9.879248,-1.016799
0.332871,-9.882838,-1.007888
0.288113,-9.883172,-0.998443
0.277382,-9.885788,-0.981811
0.281928,-9.887825,-0.980687
0.268494,-9.889091,-0.952688
0.270416,-9.888763,-0.953227
0.272085,-9.887094,-0.962658
0.281663,-9.886097,-0.973637
0.307998,-9.885899,-0.982083
0.324686,-9.884192,-0.962441
0.311125,-9.887031,-0.948964
0.317975,-9.890418,-0.933069
0.308724,-9.891594,-0.905559
0.317843,-9.89348,-0.887779
0.308398,-9.889954,-0.88299
0.280647,-9.895295,-0.900336
0.294631,-9.892282,-0.898686
0.338924,-9.892415,-0.899285
0.354752,-9.889623,-0.897555
0.324324,-9.893406,-0.875307
0.310925,-9.898731,-0.859846
0.302479,-9.89541,-0.837101
0.31743,-9.895291,-0.846866
0.296427,-9.895408,-0.870686
0.298355,-9.89534,-0.869224
0.265992,-9.898412,-0.862826
0.262109,-9.894543,-0.871684
0.266897,-9.900661,-0.871285
0.249232,-9.897106,-0.837433
0.265773,-9.89827,-0.828002
0.252267,-9.901727,-0.790148
0.250005,-9.903722,-0.742797
0.256196,-9.903781,-0.782947
0.254795,-9.900594,-0.833244
0.25659,-9.898531,-0.860444
0.214915,-9.897687,-0.89417
0.209104,-9.895473,-0.898088
0.202122,-9.895278,-0.88738
0.200195,-9.898135,-0.907731
0.174214,-9.89522,-0.917529
0.173724,-9.892349,-0.925953
0.217751,-9.89195,-0.950094
0.184951,-9.890286,-0.949453
0.216355,-9.891549,-0.971443
0.190284,-9.891152,-0.975631
0.219267,-9.890431,-0.969623
0.244486,-9.889888,-0.939187
0.225998,-9.89474,-0.907531
0.163331,-9.897688,-0.856876
0.139141,-9.904586,-0.843819
0.145858,-9.902459,-0.821273
0.201059,-9.902856,-0.825462
0.227611,-9.897688,-0.87088
0.201057,-9.897736,-0.856656
0.162417,-9.905384,-0.8095
0.127418,-9.906104,-0.762778
0.167974,-9.903635,-0.809573
0.264503,-9.901793,-0.839762
0.219279,-9.896804,-0.837634
0.219776,-9.895147,-0.894097
0.24781,-9.895942,-0.866297
0.193276,-9.898002,-0.863769
0.215785,-9.90008,-0.877918
0.226795,-9.901592,-0.832113
0.22766,-9.904253,-0.821206
0.172256,-9.90864,-0.798545
0.199128,-9.906315,-0.773323
0.176317,-9.907377,-0.739936
0.202943,-9.907772,-0.777288
0.196935,-9.906579,-0.77279
0.19281,-9.905583,-0.77565
0.209371,-9.904851,-0.786492
0.241759,-9.903204,-0.782295
0.238899,-9.904451,-0.778643
0.176651,-9.907116,-0.769332
0.192812,-9.907043,-0.763279
0.212376,-9.905014,-0.776056
0.228126,-9.903256,-0.77678
0.231716,-9.906912,-0.754103
0.195536,-9.907909,-0.740004
0.240816,-9.905597,-0.784906
0.277737,-9.903854,-0.814423
0.347236,-9.89554,-0.864037
0.319904,-9.895075,-0.835039
0.247563,-9.902477,-0.814362
0.158627,-9.903655,-0.820342
0.144261,-9.905516,-0.820009
0.123935,-9.906902,-0.807615
0.150646,-9.902723,-0.818812
0.210899,-9.899529,-0.861909
0.254818,-9.892391,-0.9036
0.239631,-9.895872,-0.876673
0.237436,-9.896606,-0.89536
0.219849,-9.896018,-0.900917
0.242756,-9.897203,-0.884587
0.25333,-9.892282,-0.897621
0.255458,-9.893812,-0.906001
0.261638,-9.891377,-0.918328
0.254861,-9.893213,-0.903275
0.240095,-9.898601,-0.88718
0.225799,-9.895365,-0.86377
0.232582,-9.897869,-0.872682
0.236772,-9.89747,-0.872481
0.235174,-9.898402,-0.883654
0.227755,-9.899068,-0.870082
0.197534,-9.896669,-0.823867
0.262576,-9.900395,-0.84967
0.333338,-9.894609,-0.880529
0.330996,-9.892389,-0.890033
0.303941,-9.894808,-0.87747
0.293301,-9.893744,-0.867161
0.281155,-9.897036,-0.872623
0.274279,-9.897203,-0.882857
0.269226,-9.893879,-0.851865
0.285252,-9.893478,-0.87022
0.287611,-9.896309,-0.895329
0.263173,-9.896406,-0.863038
0.264969,-9.893945,-0.883589
0.260513,-9.898998,-0.867428
0.262945,-9.896962,-0.831991
0.297756,-9.895274,-0.856256
0.273149,-9.895874,-0.876738
0.267079,-9.901169,-0.875304
0.261046,-9.90086,-0.816951
0.261976,-9.899133,-0.831049
0.253584,-9.89914,-0.851655
0.233778,-9.897468,-0.850403
0.234244,-9.901927,-0.833577
0.206716,-9.901604,-0.849405
0.167406,-9.902259,-0.82074
0.227593,-9.903588,-0.794206
0.279632,-9.898413,-0.797095
0.281728,-9.900861,-0.831181
0.240362,-9.899464,-0.835373
0.256775,-9.900081,-0.83083
0.261776,-9.8988,-0.826926
0.271289,-9.899263,-0.849804
0.282823,-9.898268,-0.855717
0.254745,-9.901824,-0.828799
0.223003,-9.90259,-0.847741
0.210434,-9.902192,-0.835172
0.189087,-9.90458,-0.800506
0.181638,-9.904786,-0.762881
0.1976,-9.906913,-0.760087
0.211288,-9.908063,-0.789549
0.221155,-9.903489,-0.802318
0.250804,-9.900395,-0.822336
0.251736,-9.899929,-0.83464
0.174429,-9.901821,-0.829307
0.134552,-9.903522,-0.837567
0.162417,-9.901059,-0.832645
0.237769,-9.900442,-0.855571
0.314582,-9.891152,-0.910125
0.300284,-9.893677,-0.926817
0.195138,-9.89767,-0.849671
0.17523,-9.901241,-0.837868
0.209237,-9.898398,-0.85426
0.240097,-9.8982,-0.861974
0.260333,-9.900952,-0.833226
0.226596,-9.901127,-0.815753
0.219013,-9.899401,-0.844616
0.199594,-9.898599,-0.841757
0.225531,-9.901791,-0.860844
0.270562,-9.899501,-0.862029
0.255327,-9.897001,-0.859646
0.178379,-9.900196,-0.837101
0.179438,-9.902328,-0.799489
0.179643,-9.903124,-0.829919
0.192412,-9.900462,-0.834574
0.184298,-9.904943,-0.822343
0.175585,-9.903058,-0.827724
0.189817,-9.898333,-0.854724
0.193143,-9.901925,-0.867761
0.258785,-9.897137,-0.855522
0.258808,-9.891085,-0.880529
0.25393,-9.897603,-0.908527
0.249472,-9.89102,-0.95282
0.312933,-9.885933,-0.99915
0.329347,-9.883438,-1.005227
0.326753,-9.884301,-0.98388
0.271952,-9.889555,-0.947167
0.244081,-9.893695,-0.933855
0.226463,-9.892414,-0.925153
0.242757,-9.892482,-0.928014
0.266499,-9.891815,-0.910855
0.252799,-9.896006,-0.913982
0.249958,-9.897977,-0.89903
0.238035,-9.895672,-0.872016
0.245949,-9.896672,-0.875343
0.233846,-9.900196,-0.863636
0.214552,-9.903342,-0.837723
0.197333,-9.899597,-0.833309
0.209105,-9.902125,-0.827989
0.272667,-9.899937,-0.825752
0.32338,-9.896236,-0.84048
0.292036,-9.898067,-0.853928
0.28339,-9.899265,-0.84568
0.286449,-9.898065,-0.861109
0.282895,-9.900808,-0.83504
0.306402,-9.897402,-0.826794
0.311723,-9.896073,-0.839696
0.267297,-9.896454,-0.846719
0.23105,-9.900994,-0.842024
0.237103,-9.900862,-0.835373
0.245815,-9.900726,-0.84189
0.222097,-9.900662,-0.848316
0.206862,-9.898483,-0.894242
0.244791,-9.895486,-0.892272
0.298288,-9.894077,-0.876274
0.356948,-9.891683,-0.904272
0.322001,-9.894932,-0.8888
0.266138,-9.898774,-0.867761
0.232182,-9.897002,-0.880728
0.218149,-9.897471,-0.899218
0.21136,-9.895004,-0.878498
0.279201,-9.895409,-0.855591
0.324226,-9.894876,-0.855324
0.302546,-9.892148,-0.884121
0.280285,-9.893043,-0.931534
0.254892,-9.894205,-0.921086
0.242025,-9.895209,-0.894961
0.266034,-9.892682,-0.916175
0.274479,-9.892613,-0.929676
0.283591,-9.892015,-0.915644
0.283113,-9.894493,-0.899756
0.258851,-9.895741,-0.869889
0.225065,-9.901127,-0.848474
0.210708,-9.898701,-0.856734
0.207297,-9.897904,-0.882051
0.230454,-9.895206,-0.91458
0.280067,-9.890687,-0.919967
0.325918,-9.888835,-0.943285
0.367455,-9.887826,-0.945039
0.348567,-9.888493,-0.909725
0.303009,-9.897536,-0.858916
0.22928,-9.899502,-0.82764
0.159993,-9.900953,-0.834532
0.232115,-9.898464,-0.838763
0.28153,-9.897734,-0.831782
0.282171,-9.896959,-0.85637
0.25032,-9.898124,-0.881181
0.252999,-9.897335,-0.869623
0.249073,-9.902058,-0.839495
0.260406,-9.897614,-0.831411
0.270996,-9.898193,-0.823647
0.265847,-9.897178,-0.864859
0.25373,-9.899797,-0.881658
0.202652,-9.900928,-0.834574
0.205338,-9.904576,-0.78019
0.294564,-9.901194,-0.793474
0.247146,-9.902523,-0.810168
0.202437,-9.904001,-0.829744
0.174795,-9.903999,-0.813565
0.215821,-9.901927,-0.825994
0.235374,-9.904323,-0.823201
0.198445,-9.9032,-0.770903
0.214553,-9.905813,-0.77932
0.192014,-9.905385,-0.801253
0.144995,-9.906048,-0.806309
0.186958,-9.905049,-0.827059
0.228845,-9.902982,-0.819225
0.250938,-9.90279,-0.806043
0.238765,-9.901925,-0.794472
0.213429,-9.904919,-0.775517
0.188143,-9.905161,-0.779972
0.23072,-9.902058,-0.801521
0.316313,-9.897205,-0.8234
0.401239,-9.891218,-0.90354
0.384613,-9.889778,-0.91862
0.337727,-9.891018,-0.92143
0.291373,-9.894143,-0.917639
0.264613,-9.892247,-0.921883
0.256125,-9.894134,-0.89533
0.267363,-9.899466,-0.847808
0.309395,-9.896473,-0.833044
0.309449,-9.897831,-0.834893
0.285508,-9.893697,-0.849549
0.23278,-9.900861,-0.879266
0.24515,-9.897268,-0.880129
0.280211,-9.894131,-0.882271
0.297479,-9.894494,-0.908171
0.282063,-9.889289,-0.979557
0.308996,-9.885764,-0.967385
0.359075,-9.885643,-0.970275
0.344577,-9.888627,-0.924955
0.282062,-9.890685,-0.892767
0.247279,-9.89747,-0.889042
0.23298,-9.900589,-0.860288
0.223603,-9.899797,-0.833111
0.224268,-9.90206,-0.824464
0.27448,-9.899792,-0.839538
0.313385,-9.896007,-0.850136
0.273881,-9.897204,-0.848075
0.266631,-9.89973,-0.837633
0.230514,-9.904508,-0.790057
0.21662,-9.903586,-0.78822
0.198798,-9.906847,-0.798462
0.232049,-9.900262,-0.824265
0.286232,-9.898558,-0.849477
0.290508,-9.90239,-0.835306
0.233179,-9.902193,-0.784163
0.19607,-9.906582,-0.777578
0.175301,-9.907772,-0.794264
0.211766,-9.90086,-0.816352
0.24761,-9.902454,-0.8383
0.222098,-9.903564,-0.837362
0.174721,-9.90279,-0.79334
0.20997,-9.90472,-0.797131
0.266101,-9.900526,-0.846412
0.286596,-9.895729,-0.862826
0.290307,-9.896539,-0.879266
0.237435,-9.896275,-0.864368
0.247079,-9.89674,-0.912252
0.27847,-9.894424,-0.927397
0.25792,-9.89308,-0.902143
0.257588,-9.894343,-0.872417
0.2661,-9.899667,-0.855125
0.273972,-9.903708,-0.826552
0.270344,-9.902619,-0.810516
0.259099,-9.899792,-0.822995
0.213229,-9.902723,-0.827392
0.240896,-9.903919,-0.814955
0.270709,-9.901097,-0.792379
0.295627,-9.903852,-0.789814
0.276474,-9.899198,-0.830983
0.271353,-9.902856,-0.84415
0.2731,-9.898701,-0.82851
0.286051,-9.900127,-0.797729
0.282595,-9.89973,-0.79753
0.275786,-9.901096,-0.832428
0.263773,-9.896206,-0.851001
0.268227,-9.899597,-0.848408
0.279733,-9.898932,-0.869954
0.26425,-9.895654,-0.854264
0.303343,-9.89541,-0.848607
0.321034,-9.899134,-0.841025
0.332302,-9.89747,-0.842439
0.259715,-9.899998,-0.857785
0.178247,-9.904185,-0.820342
0.200192,-9.902125,-0.822271
0.175737,-9.904797,-0.829525
0.173191,-9.900463,-0.845481
0.256324,-9.89614,-0.883722
0.276609,-9.89747,-0.889573
0.247927,-9.898993,-0.884956
0.247678,-9.899864,-0.822271
0.192346,-9.904386,-0.790813
0.186028,-9.904719,-0.809701
0.184298,-9.90603,-0.801447
0.202188,-9.902526,-0.822137
0.259117,-9.903719,-0.818613
0.237986,-9.90146,-0.795717
0.177181,-9.906649,-0.815022
0.192213,-9.905117,-0.810433
0.232981,-9.900879,-0.843455
0.288772,-9.892753,-0.875087
0.320368,-9.894145,-0.879731
0.315247,-9.895608,-0.876605
0.311191,-9.895473,-0.8651
0.299656,-9.89573,-0.870229
0.266426,-9.895293,-0.866527
0.304541,-9.89062,-0.921098
0.31864,-9.891951,-0.932004
0.321347,-9.892101,-0.905125
0.33041,-9.889223,-0.934997
0.30361,-9.893811,-0.917905
0.283839,-9.900661,-0.85013
0.235954,-9.900298,-0.784615
0.213628,-9.907847,-0.79261
0.18842,-9.905916,-0.777378
0.1872,-9.90545,-0.779755
0.222871,-9.901859,-0.78496
0.320968,-9.900064,-0.818014
0.305677,-9.902692,-0.808269
0.238568,-9.90741,-0.802608
0.179511,-9.900994,-0.804313
0.212098,-9.904119,-0.850669
0.222243,-9.900298,-0.844834
0.26911,-9.898849,-0.881691
0.282859,-9.897935,-0.866962
0.205315,-9.898803,-0.882791
0.157889,-9.900446,-0.872693
0.205314,-9.897005,-0.913384
0.230653,-9.894943,-0.905203
0.249075,-9.895941,-0.908062
0.240018,-9.89551,-0.88452
0.26113,-9.896451,-0.904615
0.264571,-9.896802,-0.887579
0.239099,-9.8992,-0.867694
0.235308,-9.899931,-0.851134
0.221589,-9.898919,-0.83163
0.253796,-9.901592,-0.834841
0.248009,-9.900465,-0.836703
0.235519,-9.903852,-0.823431
0.230387,-9.901058,-0.819079
0.251071,-9.902191,-0.815952
0.295593,-9.90465,-0.790203
0.254456,-9.900156,-0.764085
0.243887,-9.901392,-0.782433
0.210435,-9.907513,-0.819211
0.208639,-9.906781,-0.789814
0.232762,-9.905087,-0.775041
0.250339,-9.904385,-0.796797
0.266565,-9.90332,-0.802184
0.270634,-9.902112,-0.808269
0.24342,-9.903453,-0.779175
0.195271,-9.905517,-0.766605
0.197938,-9.905595,-0.803263
0.203586,-9.905984,-0.822005
0.203985,-9.907313,-0.776913
0.224003,-9.905719,-0.755301
0.244443,-9.902114,-0.780699
0.243421,-9.904588,-0.812626
0.214092,-9.903521,-0.851002
0.145857,-9.900929,-0.78782
0.157018,-9.909585,-0.789766
0.189884,-9.904785,-0.793208
0.214957,-9.906581,-0.774652
0.206426,-9.909225,-0.733612
0.190749,-9.907978,-0.743727
0.206844,-9.907245,-0.751442
0.261975,-9.903987,-0.766273
0.247419,-9.908642,-0.79238
0.167805,-9.905648,-0.785359
0.177781,-9.909771,-0.774321
0.203918,-9.906913,-0.745457
0.188144,-9.909585,-0.748413
0.184896,-9.908977,-0.749712
0.181769,-9.909243,-0.748516
0.185429,-9.907775,-0.760687
0.182629,-9.909949,-0.767276
0.174522,-9.909508,-0.763146
0.149515,-9.908709,-0.768998
0.157763,-9.90751,-0.789948
0.160792,-9.907118,-0.794265
0.20711,-9.905914,-0.795801
0.271488,-9.901526,-0.78975
0.274043,-9.90233,-0.786648
0.206427,-9.908205,-0.77018
0.18443,-9.908977,-0.768866
0.189685,-9.908377,-0.759823
0.210501,-9.907181,-0.757228
0.228771,-9.908351,-0.748703
0.230006,-9.90915,-0.723819
0.237502,-9.907776,-0.756031
0.248608,-9.899597,-0.84854
0.348101,-9.890089,-0.897155
0.421325,-9.8884,-0.908897
0.369594,-9.891665,-0.905343
0.3632,-9.889755,-0.903142
0.4033,-9.886363,-0.937193
0.413477,-9.882438,-0.947566
0.357915,-9.887457,-0.924641
0.279334,-9.900726,-0.890505
0.168869,-9.902658,-0.834973
0.114358,-9.904726,-0.791
0.146523,-9.900593,-0.835438
0.291172,-9.899067,-0.922427
0.385611,-9.884833,-0.956013
0.330345,-9.892815,-0.912851
0.301615,-9.893263,-0.910422
0.280333,-9.895011,-0.909061
0.274546,-9.898535,-0.886516
0.359208,-9.895542,-0.845547
0.305603,-9.900515,-0.81741
0.268959,-9.899999,-0.838498
0.286849,-9.898,-0.884718
0.263813,-9.899355,-0.851436
0.269825,-9.900397,-0.821805
0.320635,-9.899865,-0.826993
0.342389,-9.895366,-0.844618
0.344928,-9.896238,-0.862392
0.363531,-9.891216,-0.896758
0.390066,-9.888824,-0.934598
0.399704,-9.885354,-0.938208
0.364397,-9.893744,-0.90487
0.356681,-9.889623,-0.900681
0.353223,-9.889622,-0.904803
0.324686,-9.896164,-0.889526
0.263374,-9.903255,-0.81848
0.189486,-9.905384,-0.76328
0.191915,-9.906754,-0.780916
0.217019,-9.905886,-0.811387
0.218616,-9.899929,-0.858448
0.246547,-9.897535,-0.946703
0.248577,-9.892391,-0.898524
0.234774,-9.897535,-0.843952
0.236038,-9.902856,-0.853396
0.228857,-9.90146,-0.884786
0.231675,-9.90175,-0.849042
0.27069,-9.900261,-0.832979
0.29769,-9.901527,-0.833577
0.250973,-9.901387,-0.833153
0.20159,-9.899866,-0.837767
0.215888,-9.902525,-0.876539
0.249812,-9.899794,-0.859344
0.249376,-9.904433,-0.775184
0.221475,-9.90452,-0.765475
0.18902,-9.903322,-0.857849
0.205314,-9.896938,-0.909527
0.244219,-9.898533,-0.896624
0.297261,-9.89638,-0.880167
0.315326,-9.897615,-0.857458
0.277238,-9.900082,-0.81603
0.233313,-9.904517,-0.810434
0.197333,-9.906845,-0.774186
0.222605,-9.902694,-0.800071
0.260447,-9.901394,-0.82114
0.295761,-9.899531,-0.861707
0.268095,-9.895808,-0.882192
0.22307,-9.900994,-0.923226
0.26055,-9.8958,-0.920432
0.301946,-9.89328,-0.916175
0.277075,-9.899995,-0.872083
0.204686,-9.899066,-0.840408
0.163481,-9.907977,-0.821938
0.135749,-9.904918,-0.80571
0.189158,-9.905669,-0.796369
0.220646,-9.904722,-0.817338
0.279934,-9.902856,-0.835705
0.261112,-9.900929,-0.79507
0.311627,-9.901822,-0.828511
0.284709,-9.904506,-0.799199
0.196868,-9.906115,-0.768734
0.262374,-9.899396,-0.854194
0.326791,-9.897398,-0.880168
0.333006,-9.898067,-0.824997
0.276143,-9.903324,-0.787421
0.20309,-9.904289,-0.797096
0.112405,-9.909439,-0.824598
0.15364,-9.901325,-0.858847
0.22783,-9.897324,-0.890542
0.310176,-9.894785,-0.913975
0.282387,-9.893625,-0.912741
0.235307,-9.894478,-0.941848
0.20957,-9.899267,-0.906667
0.214558,-9.90279,-0.828455
0.229353,-9.901169,-0.820312
0.264237,-9.904053,-0.819876
0.254262,-9.902592,-0.824864
0.21194,-9.905595,-0.826986
0.202219,-9.901823,-0.829526
0.213893,-9.903322,-0.84189
0.298754,-9.904119,-0.821339
0.261347,-9.90799,-0.751025
0.25373,-9.908044,-0.737809
0.259051,-9.904055,-0.771594
0.24009,-9.907191,-0.807905
0.188151,-9.905816,-0.778924
0.172183,-9.910164,-0.749935
0.171093,-9.903201,-0.785559
0.19286,-9.907626,-0.818206
0.154333,-9.910674,-0.811751
0.131493,-9.909575,-0.718853
0.165544,-9.915028,-0.704621
0.225132,-9.909371,-0.742928
0.204831,-9.907845,-0.75799
0.197733,-9.907776,-0.758756
0.181705,-9.912565,-0.758425
0.184733,-9.908496,-0.770831
0.187557,-9.90698,-0.811096
0.200659,-9.905252,-0.814289
0.210568,-9.905452,-0.803581
0.196124,-9.908497,-0.786357
0.184963,-9.909243,-0.765941
0.177248,-9.906714,-0.771792
0.142799,-9.907625,-0.813635
0.134747,-9.905813,-0.851145
0.182767,-9.902122,-0.85579
0.191215,-9.901657,-0.848008
0.134686,-9.908909,-0.823801
0.113736,-9.907643,-0.817616
0.171673,-9.907845,-0.815596
0.315181,-9.904983,-0.798395
0.278803,-9.903257,-0.764476
0.252787,-9.908932,-0.746309
0.226927,-9.908644,-0.757494
0.201389,-9.910305,-0.76767
0.210766,-9.908776,-0.773522
0.223912,-9.902982,-0.755741
0.201058,-9.906467,-0.776708
0.166474,-9.906048,-0.803052
0.159359,-9.907447,-0.818281
0.195616,-9.905307,-0.826333
